Timestamp,linear_accelerationX,linear_accelerationY,linear_accelerationZ,magX,magY,magZ,gyroX,gyroY,gyroZ
1742912607.8135433,-0.000654878094792366,-0.0006918134167790413,0.00205916166305542,-150.69580078125,-84.94873046875,399.98779296875,0.91552734375,4.94384765625,0.244140625
1742912607.8582582,0.0003163674846291542,0.0005201473832130432,0.002025127410888672,-150.78125,-84.47265625,399.98779296875,0.732421875,4.8828125,0.244140625
1742912607.9032993,-0.0006492827087640762,-8.87131318449974e-05,0.000671088695526123,-150.74462890625,-85.46142578125,399.98779296875,0.79345703125,4.8828125,0.244140625
1742912607.948197,-0.0005184980109333992,-0.0006875097751617432,0.00029981136322021484,-149.7802734375,-84.53369140625,399.98779296875,0.8544921875,4.82177734375,0.18310546875
1742912607.9947445,0.0003304407000541687,-0.0017566196620464325,-0.0006655454635620117,-149.90234375,-84.60693359375,399.98779296875,0.8544921875,5.0048828125,0.244140625
1742912608.084308,-0.0006354423239827156,-0.0004070056602358818,0.001746535301208496,-149.42626953125,-83.6181640625,399.98779296875,0.8544921875,4.82177734375,0.30517578125
1742912608.128246,-0.00026478152722120285,-0.0005203308537602425,0.0025580525398254395,-149.951171875,-83.89892578125,399.98779296875,0.91552734375,5.06591796875,0.18310546875
1742912608.1731477,-0.00014035217463970184,0.0006887959316372871,-0.0009657740592956543,-149.64599609375,-83.82568359375,399.98779296875,0.91552734375,4.7607421875,0.30517578125
1742912608.2181318,-0.0008583478629589081,-0.00016295723617076874,0.0007309317588806152,-150.0732421875,-84.3017578125,399.98779296875,0.9765625,4.82177734375,0.1220703125
1742912608.2630591,-0.0007241079583764076,-0.0008805794641375542,0.002279520034790039,-149.4873046875,-84.04541015625,399.98779296875,1.03759765625,4.82177734375,0.244140625
1742912608.3094037,-0.0003519812598824501,-0.0005058664828538895,0.002241849899291992,-149.91455078125,-84.8876953125,399.98779296875,0.8544921875,5.06591796875,0.244140625
1742912608.3531966,-0.0004662163555622101,-0.001337873749434948,0.0016045570373535156,-149.5361328125,-83.9111328125,399.98779296875,0.91552734375,4.94384765625,0.244140625
1742912608.398222,-0.001178826205432415,-0.00011523347347974777,0.0006176233291625977,-150.32958984375,-85.7177734375,399.98779296875,0.9765625,4.7607421875,0.42724609375
1742912608.4435096,0.0002812901511788368,-0.0008336445316672325,0.0010876059532165527,-149.267578125,-83.740234375,399.98779296875,0.9765625,4.8828125,0.30517578125
1742912608.4881296,-0.0003236224874854088,-0.0010599708184599876,0.0016698837280273438,-150.10986328125,-85.1806640625,399.98779296875,0.8544921875,5.0048828125,0.18310546875
1742912608.5783374,0.0005220947787165642,-0.0008023455739021301,0.0027227401733398438,-150.52490234375,-83.77685546875,399.98779296875,1.03759765625,4.94384765625,0.18310546875
1742912608.6242242,-0.00020685046911239624,-0.0011492418125271797,-0.0011639595031738281,-150.67138671875,-84.89990234375,399.98779296875,0.9765625,4.82177734375,0.3662109375
1742912608.668197,-0.001043800264596939,-4.977267235517502e-05,-0.0015048980712890625,-150.0,-83.935546875,399.98779296875,0.91552734375,4.8828125,0.18310546875
1742912608.713175,-0.0004262840375304222,-0.0001690024510025978,0.0033220648765563965,-149.951171875,-84.97314453125,399.98779296875,0.8544921875,4.8828125,0.3662109375
1742912608.7591064,-0.0004192376509308815,-0.000166209414601326,0.0037473440170288086,-150.30517578125,-84.41162109375,399.98779296875,0.91552734375,4.82177734375,0.244140625
1742912608.8032176,-0.00029225554317235947,-0.001363988034427166,0.0012843608856201172,-150.50048828125,-84.423828125,399.98779296875,0.79345703125,5.0048828125,0.18310546875
1742912608.8484056,0.0005529439076781273,0.0005793990567326546,-0.004499375820159912,-150.01220703125,-84.02099609375,399.98779296875,0.91552734375,4.8828125,0.30517578125
1742912608.8947792,-0.0006567221134901047,-0.0008708089590072632,-0.0007033944129943848,-150.18310546875,-84.8876953125,399.98779296875,0.91552734375,4.7607421875,0.18310546875
1742912608.9392054,-0.0005258144810795784,0.0005842158570885658,0.00495070219039917,-150.3662109375,-84.423828125,399.98779296875,0.91552734375,4.94384765625,0.3662109375
1742912609.029328,-0.0015975972637534142,-0.00014575663954019547,0.0016274452209472656,-149.98779296875,-85.3515625,399.98779296875,0.8544921875,4.94384765625,0.1220703125
1742912609.0735345,-0.0003706645220518112,0.000697021372616291,-0.001400768756866455,-150.23193359375,-84.1064453125,399.98779296875,0.91552734375,4.94384765625,0.3662109375
1742912609.1181712,0.0003557782620191574,0.0008055530488491058,0.0006632804870605469,-150.0244140625,-84.60693359375,399.98779296875,0.9765625,5.0048828125,0.18310546875
1742912609.1631927,-0.0003704177215695381,0.00019197538495063782,0.0025731325149536133,-149.62158203125,-83.72802734375,399.98779296875,0.9765625,4.8828125,0.30517578125
1742912609.2089858,0.0001159152016043663,0.00030885450541973114,0.0020503997802734375,-150.146484375,-84.16748046875,399.98779296875,0.9765625,5.0048828125,0.30517578125
1742912609.253129,-0.000726369209587574,-5.64083456993103e-05,0.0011761188507080078,-150.244140625,-83.7890625,399.98779296875,0.9765625,4.82177734375,0.244140625
1742912609.2982247,0.0012064790353178978,-0.0004156334325671196,-0.0011243224143981934,-150.4638671875,-84.77783203125,399.98779296875,0.91552734375,4.82177734375,0.244140625
1742912609.3431652,-0.00013404153287410736,-0.0004087630659341812,0.0010551810264587402,-149.76806640625,-83.97216796875,399.98779296875,0.91552734375,4.94384765625,0.244140625
1742912609.388094,0.0005884896963834763,-0.00016190111637115479,0.002598404884338379,-150.2685546875,-84.5947265625,399.98779296875,0.91552734375,4.94384765625,0.18310546875
1742912609.4784937,-0.0007418161258101463,0.00032098498195409775,3.4332275390625e-05,-150.28076171875,-84.04541015625,399.98779296875,0.91552734375,4.82177734375,0.30517578125
1742912609.523187,-0.0004894491285085678,0.00043573230504989624,0.0001538395881652832,-149.70703125,-84.80224609375,399.98779296875,0.79345703125,4.82177734375,0.18310546875
1742912609.568208,-1.148320734500885e-06,0.0001884251832962036,-0.00020885467529296875,-149.8046875,-83.984375,399.98779296875,0.91552734375,4.94384765625,0.18310546875
1742912609.6138382,-0.0006013922393321991,0.0003053629770874977,3.4689903259277344e-05,-149.8046875,-84.375,399.98779296875,0.91552734375,4.7607421875,0.244140625
1742912609.6582503,-0.00011124182492494583,0.0003003152087330818,0.0018349289894104004,-149.4873046875,-84.2529296875,399.98779296875,0.8544921875,4.8828125,0.1220703125
1742912609.7034805,0.0003708070144057274,-0.0006650695577263832,0.0019246339797973633,-149.6826171875,-84.9365234375,399.98779296875,0.91552734375,4.7607421875,0.244140625
1742912609.7482018,-0.00011553242802619934,-0.000774129293859005,0.0004521608352661133,-149.35302734375,-83.99658203125,399.98779296875,0.9765625,4.8828125,0.3662109375
1742912609.7939255,0.0007267454639077187,-0.0005212286487221718,0.0012850761413574219,-150.62255859375,-84.8388671875,399.98779296875,0.91552734375,4.94384765625,0.244140625
1742912609.838436,-0.00048579275608062744,0.00032775476574897766,0.0004234910011291504,-150.15869140625,-84.1796875,399.98779296875,0.79345703125,4.7607421875,0.30517578125
1742912609.9282098,0.00048265792429447174,-3.782007843255997e-05,0.0010167360305786133,-150.537109375,-85.546875,399.98779296875,0.91552734375,4.82177734375,0.18310546875
1742912609.9734557,-0.00012558326125144958,-0.00039735250174999237,0.0007598400115966797,-150.09765625,-84.716796875,399.98779296875,0.91552734375,4.82177734375,0.30517578125
1742912610.0183167,-0.0003636125475168228,-0.00015067961066961288,0.0003871321678161621,-150.48828125,-84.716796875,399.98779296875,0.91552734375,4.7607421875,0.244140625
1742912610.06418,0.0007228711619973183,-0.0007484517991542816,-9.948015213012695e-05,-150.1953125,-84.5458984375,399.98779296875,0.91552734375,5.0048828125,0.3662109375
1742912610.108193,0.00047081802040338516,-0.0008561331778764725,0.0006224513053894043,-150.537109375,-84.97314453125,399.98779296875,0.9765625,4.7607421875,0.3662109375
1742912610.153131,-0.00037733279168605804,0.0007187016308307648,-0.00046831369400024414,-149.91455078125,-84.521484375,399.98779296875,0.8544921875,4.82177734375,0.18310546875
1742912610.198613,0.0007093781605362892,0.0010669799521565437,0.0015802979469299316,-151.220703125,-85.46142578125,399.98779296875,0.79345703125,4.7607421875,0.244140625
1742912610.2439506,-0.0006229262799024582,0.0005691330879926682,-0.0007268190383911133,-150.03662109375,-84.63134765625,399.98779296875,0.9765625,4.7607421875,0.244140625
1742912610.288183,0.0005878964439034462,0.00019956845790147781,0.001206040382385254,-150.25634765625,-85.07080078125,399.98779296875,0.91552734375,4.7607421875,0.30517578125
1742912610.3332667,-0.0008624522015452385,0.0004363749176263809,0.0007058978080749512,-149.4140625,-84.31396484375,399.98779296875,0.9765625,4.69970703125,0.18310546875
1742912610.4233088,0.0005924347788095474,-0.0008914163336157799,0.0010544061660766602,-150.25634765625,-84.82666015625,399.98779296875,0.9765625,4.94384765625,0.244140625
1742912610.4683554,-0.000257725827395916,8.373893797397614e-05,0.0005567669868469238,-150.5126953125,-84.75341796875,399.98779296875,0.8544921875,4.94384765625,0.42724609375
1742912610.5134115,-0.0008537294343113899,-0.00039785541594028473,0.0011478066444396973,-149.96337890625,-84.99755859375,399.98779296875,0.91552734375,4.82177734375,0.18310546875
1742912610.5582142,0.0007210662588477135,-0.00027122627943754196,-0.00019174814224243164,-150.2685546875,-84.41162109375,399.98779296875,0.8544921875,4.638671875,0.18310546875
1742912610.6031046,-0.0007314840331673622,-0.0009870585054159164,0.0012520551681518555,-150.244140625,-85.51025390625,399.98779296875,0.9765625,5.06591796875,0.244140625
1742912610.6497128,-0.0007193936035037041,0.00010973028838634491,0.0002709627151489258,-150.40283203125,-84.619140625,399.98779296875,0.91552734375,4.8828125,0.18310546875
1742912610.6940339,0.000132865272462368,-0.00121266208589077,0.001106858253479004,-150.29296875,-85.33935546875,399.98779296875,1.03759765625,4.69970703125,0.244140625
1742912610.738329,0.00025072135031223297,-0.0002321973443031311,0.00048828125,-150.69580078125,-84.46044921875,399.98779296875,0.79345703125,4.8828125,0.30517578125
1742912610.783316,0.00036663003265857697,0.0008521145209670067,0.0008403658866882324,-150.341796875,-85.205078125,399.98779296875,0.91552734375,4.638671875,0.18310546875
1742912610.8299272,-0.00035974569618701935,0.00023776665329933167,-1.3887882232666016e-05,-150.06103515625,-84.6435546875,399.98779296875,0.91552734375,4.82177734375,0.244140625
1742912610.9182863,0.0008467268198728561,-6.268732249736786e-06,0.0009467601776123047,-149.64599609375,-84.3994140625,399.98779296875,0.9765625,4.8828125,0.244140625
1742912610.9653757,0.0010728370398283005,0.0001138877123594284,0.00033086538314819336,-149.5361328125,-84.68017578125,399.98779296875,0.79345703125,4.7607421875,0.18310546875
1742912611.008268,-0.0001454222947359085,0.0008323211222887039,-0.0006350278854370117,-150.03662109375,-85.0830078125,399.98779296875,0.91552734375,4.82177734375,0.18310546875
1742912611.0532746,-0.0003831237554550171,0.00021830108016729355,0.0018965601921081543,-150.0244140625,-84.5947265625,399.98779296875,0.8544921875,4.7607421875,0.42724609375
1742912611.0998135,0.0004635769873857498,0.0006949035450816154,0.0010248422622680664,-150.1953125,-84.5947265625,399.98779296875,0.79345703125,4.7607421875,0.30517578125
1742912611.1435075,-0.00014434847980737686,0.00032325927168130875,0.001248002052307129,-150.0,-84.08203125,399.98779296875,0.9765625,4.94384765625,0.244140625
1742912611.1882074,-0.000502120703458786,7.781106978654861e-05,-0.0009335875511169434,-150.1220703125,-84.77783203125,399.98779296875,1.03759765625,4.638671875,0.30517578125
1742912611.2332773,0.0003465469926595688,-0.0001635802909731865,0.0002823472023010254,-150.4638671875,-84.1552734375,399.98779296875,0.8544921875,4.7607421875,0.244140625
1742912611.3233309,-0.0008597075939178467,7.922854274511337e-05,0.0007578730583190918,-149.1943359375,-84.47265625,399.98779296875,0.9765625,4.82177734375,0.18310546875
1742912611.3682928,-0.0012056557461619377,0.00019797123968601227,0.0007453560829162598,-149.67041015625,-84.21630859375,399.98779296875,0.8544921875,4.638671875,0.244140625
1742912611.4145985,1.4798715710639954e-05,-0.0038870899006724358,0.0021736621856689453,-150.3662109375,-84.53369140625,399.98779296875,0.79345703125,4.82177734375,0.244140625
1742912611.4592402,-0.0010659191757440567,0.0012193694710731506,0.003218233585357666,-150.0732421875,-84.60693359375,399.98779296875,0.91552734375,4.82177734375,0.42724609375
1742912611.503157,-0.0015285108238458633,-0.0015619955956935883,0.004125475883483887,-150.81787109375,-84.5458984375,399.98779296875,0.91552734375,4.7607421875,0.42724609375
1742912611.548612,-6.261467933654785e-05,0.0008648745715618134,-0.0011049509048461914,-150.37841796875,-84.46044921875,399.98779296875,0.9765625,4.82177734375,0.3662109375
1742912611.5933475,0.0006587356328964233,-0.0009502097964286804,-0.0019270777702331543,-150.32958984375,-84.3017578125,399.98779296875,1.03759765625,4.94384765625,0.30517578125
1742912611.6382127,0.000767899677157402,0.0006261803209781647,0.0021865367889404297,-149.89013671875,-84.08203125,399.98779296875,0.79345703125,4.8828125,0.244140625
1742912611.6832457,-8.516106754541397e-05,0.0012160930782556534,0.0007097721099853516,-150.23193359375,-84.72900390625,399.98779296875,0.8544921875,4.7607421875,0.42724609375
1742912611.7743852,-0.0003238590434193611,-0.001445164903998375,0.0010582208633422852,-149.8779296875,-84.94873046875,399.98779296875,0.9765625,4.7607421875,0.30517578125
1742912611.818174,0.0002817567437887192,0.0009797746315598488,-0.0005199313163757324,-149.560546875,-84.68017578125,399.98779296875,0.91552734375,4.82177734375,0.244140625
1742912611.8650475,0.00039715226739645004,-0.00023694615811109543,-0.0006313920021057129,-150.47607421875,-84.75341796875,399.98779296875,0.8544921875,4.94384765625,0.30517578125
1742912611.9082434,-0.000569833442568779,-0.00023302994668483734,-0.0007410049438476562,-150.76904296875,-84.50927734375,399.98779296875,0.91552734375,4.82177734375,0.30517578125
1742912611.953233,0.0005200589075684547,-0.0009494936093688011,0.0010720491409301758,-149.93896484375,-84.11865234375,399.98779296875,0.8544921875,4.82177734375,0.30517578125
1742912611.9984815,0.0006315158680081367,-0.0004535894840955734,0.0010543465614318848,-150.0244140625,-84.50927734375,399.98779296875,0.79345703125,4.7607421875,0.244140625
1742912612.0432472,0.0012213410809636116,0.00027422327548265457,0.0004366636276245117,-150.30517578125,-84.5458984375,399.98779296875,0.91552734375,5.0048828125,0.18310546875
1742912612.0882215,0.00012067984789609909,-0.0006907302886247635,0.00018936395645141602,-150.244140625,-84.716796875,399.98779296875,0.91552734375,4.82177734375,0.18310546875
1742912612.1331887,0.0014392640441656113,0.0002811076119542122,6.61611557006836e-05,-150.67138671875,-84.765625,399.98779296875,0.9765625,4.94384765625,0.244140625
1742912612.2233138,0.00045505352318286896,-0.00044385436922311783,0.0011455416679382324,-149.98779296875,-84.99755859375,399.98779296875,0.8544921875,4.82177734375,0.18310546875
1742912612.2682295,0.0008076895028352737,-0.0004365183413028717,4.6133995056152344e-05,-150.13427734375,-85.16845703125,399.98779296875,0.9765625,4.82177734375,0.18310546875
1742912612.3138528,0.00019407644867897034,-0.0005493555217981339,0.0006456375122070312,-150.08544921875,-84.4970703125,399.98779296875,0.9765625,4.8828125,0.244140625
1742912612.3583078,0.000911184586584568,-0.0010204855352640152,0.0014753341674804688,-150.5126953125,-85.14404296875,399.98779296875,0.91552734375,4.82177734375,0.244140625
1742912612.4032738,-0.00030440278351306915,-0.00040335487574338913,0.000850677490234375,-150.29296875,-84.46044921875,399.98779296875,0.8544921875,4.82177734375,0.18310546875
1742912612.4497352,-0.0006595291197299957,-0.00027663540095090866,-3.7550926208496094e-06,-150.86669921875,-85.24169921875,399.98779296875,0.9765625,4.8828125,0.244140625
1742912612.4940438,0.000671951100230217,0.0008084103465080261,-0.0004839301109313965,-150.09765625,-84.72900390625,399.98779296875,0.91552734375,4.94384765625,0.3662109375
1742912612.538282,-5.947146564722061e-05,-4.5320019125938416e-05,-0.0001157522201538086,-150.89111328125,-85.0830078125,399.98779296875,0.91552734375,4.8828125,0.244140625
1742912612.583317,0.0003016693517565727,0.00031558703631162643,-0.0005940794944763184,-150.4638671875,-84.7900390625,399.98779296875,0.8544921875,4.8828125,0.244140625
1742912612.6733289,0.0008969465270638466,0.000430423766374588,-0.00022411346435546875,-150.35400390625,-85.15625,399.98779296875,0.8544921875,4.8828125,0.30517578125
1742912612.7182102,0.0010021738708019257,0.0003032563254237175,-0.0009407401084899902,-150.76904296875,-85.09521484375,399.98779296875,0.79345703125,4.8828125,0.18310546875
1742912612.763893,-9.486451745033264e-05,0.0005383491516113281,-0.00020486116409301758,-150.52490234375,-85.25390625,399.98779296875,0.8544921875,4.8828125,0.18310546875
1742912612.8082974,0.0007470715790987015,-0.00019086524844169617,0.0013592243194580078,-149.9755859375,-84.5703125,399.98779296875,0.8544921875,4.94384765625,0.244140625
1742912612.8544686,0.00013446062803268433,-0.00042781606316566467,0.0003763437271118164,-150.50048828125,-85.3759765625,399.98779296875,0.91552734375,4.94384765625,0.3662109375
1742912612.898454,-0.002268814481794834,-0.0013811653479933739,0.0007302761077880859,-149.96337890625,-84.5458984375,399.98779296875,0.9765625,4.82177734375,0.30517578125
1742912612.9432378,-0.0006706295534968376,0.0022432422265410423,0.000718235969543457,-150.30517578125,-85.04638671875,399.98779296875,0.9765625,4.82177734375,0.244140625
1742912612.9883628,6.0770660638809204e-05,-0.0003149416297674179,-0.0008543133735656738,-149.267578125,-84.1552734375,399.98779296875,0.732421875,4.7607421875,0.244140625
1742912613.0332499,-0.0005404967814683914,5.042180418968201e-05,-0.00312119722366333,-150.20751953125,-84.82666015625,399.98779296875,0.8544921875,4.8828125,0.244140625
1742912613.0792406,-0.000291457399725914,-0.0004306221380829811,-0.0034297704696655273,-149.86572265625,-84.65576171875,399.98779296875,0.9765625,4.69970703125,0.244140625
1742912613.1693687,0.0003136228770017624,-6.334669888019562e-05,0.004910528659820557,-149.84130859375,-84.68017578125,399.98779296875,0.91552734375,4.8828125,0.244140625
1742912613.2134922,-0.0011321920901536942,-0.0004224572330713272,0.0008676052093505859,-149.79248046875,-84.33837890625,399.98779296875,0.91552734375,4.94384765625,0.244140625
1742912613.258283,0.0012875739485025406,-0.0008956845849752426,0.0014535188674926758,-150.10986328125,-84.87548828125,399.98779296875,0.732421875,4.94384765625,0.3662109375
1742912613.3032656,-0.00017433986067771912,-0.000880880281329155,-0.0003712773323059082,-150.50048828125,-83.99658203125,399.98779296875,0.9765625,4.8828125,0.30517578125
1742912613.3484108,-5.140528082847595e-05,0.0003342060372233391,0.00035518407821655273,-150.0,-85.3515625,399.98779296875,0.91552734375,4.7607421875,0.30517578125
1742912613.3933911,6.949715316295624e-05,-0.0009918967261910439,0.000949561595916748,-150.13427734375,-84.716796875,399.98779296875,0.8544921875,5.0048828125,0.18310546875
1742912613.4395123,0.0005485592409968376,0.00034507736563682556,0.0012940168380737305,-149.609375,-85.3759765625,399.98779296875,0.91552734375,4.8828125,0.3662109375
1742912613.4832335,-0.0004209289327263832,0.00033937394618988037,-0.0024489760398864746,-149.8291015625,-84.47265625,399.98779296875,0.8544921875,4.94384765625,0.30517578125
1742912613.573308,0.00018629152327775955,0.0006939219310879707,0.0009529590606689453,-149.8779296875,-85.205078125,399.98779296875,0.8544921875,4.82177734375,0.42724609375
1742912613.6182034,-0.00017694570124149323,0.00020224135369062424,0.0006970763206481934,-150.06103515625,-84.08203125,399.98779296875,0.79345703125,4.94384765625,0.244140625
1742912613.66362,0.001146557740867138,0.00031895097345113754,0.00044542551040649414,-150.4638671875,-85.1806640625,399.98779296875,0.8544921875,4.82177734375,0.18310546875
1742912613.7083595,-0.000192972831428051,7.357355207204819e-05,0.0006781816482543945,-149.8291015625,-84.6435546875,399.98779296875,1.03759765625,4.8828125,0.30517578125
1742912613.7533228,0.0005305325612425804,-4.7694891691207886e-05,0.00018674135208129883,-150.5615234375,-84.912109375,399.98779296875,0.67138671875,4.94384765625,0.3662109375
1742912613.798482,-0.0009188679978251457,-0.0002870121970772743,0.0027047395706176758,-150.18310546875,-83.92333984375,399.98779296875,0.8544921875,4.8828125,0.244140625
1742912613.8432944,0.0005369512364268303,0.0006781527772545815,0.0012193918228149414,-150.68359375,-85.0830078125,399.98779296875,0.91552734375,4.94384765625,0.244140625
1742912613.888305,-0.0007925024256110191,0.0006669433787465096,-0.00048148632049560547,-149.81689453125,-84.28955078125,399.98779296875,0.91552734375,4.8828125,0.244140625
1742912613.978337,6.096530705690384e-05,-0.001505027525126934,-0.0004734992980957031,-150.10986328125,-85.04638671875,399.98779296875,0.8544921875,4.7607421875,0.18310546875
1742912613.9803932,-0.0003002006560564041,0.0003206385299563408,0.0018153190612792969,-149.54833984375,-84.09423828125,399.98779296875,0.91552734375,4.94384765625,0.3662109375
1742912614.0683503,0.0010253405198454857,-0.0010052397847175598,0.0010650157928466797,-150.76904296875,-84.5458984375,399.98779296875,1.03759765625,4.82177734375,0.3662109375
1742912614.1152089,0.000888340175151825,-0.0005084136500954628,-3.30805778503418e-05,-150.03662109375,-84.5947265625,399.98779296875,0.8544921875,4.7607421875,0.3662109375
1742912614.1582303,0.0006335517391562462,0.00034035835415124893,0.0005677342414855957,-150.5859375,-84.814453125,399.98779296875,0.9765625,4.94384765625,0.244140625
1742912614.2031481,-0.0014178147539496422,0.0010550487786531448,0.00031822919845581055,-149.79248046875,-84.31396484375,399.98779296875,0.9765625,5.06591796875,0.3662109375
1742912614.249819,4.6251341700553894e-05,-0.00028296932578086853,-0.00040733814239501953,-150.40283203125,-85.33935546875,399.98779296875,0.8544921875,5.0048828125,0.30517578125
1742912614.293749,-7.456541061401367e-05,8.186604827642441e-05,0.0018804073333740234,-149.93896484375,-84.26513671875,399.98779296875,0.79345703125,4.7607421875,0.18310546875
1742912614.3382256,0.0005269302055239677,0.00032061804085969925,-0.00019156932830810547,-150.67138671875,-85.36376953125,399.98779296875,0.9765625,4.8828125,0.3662109375
1742912614.3831713,-0.000922410748898983,7.521361112594604e-05,5.167722702026367e-05,-150.29296875,-84.19189453125,399.98779296875,1.03759765625,4.94384765625,0.30517578125
1742912614.4290526,0.001133730635046959,-0.000286187045276165,5.08427619934082e-05,-150.4638671875,-85.009765625,399.98779296875,1.0986328125,4.94384765625,0.244140625
1742912614.473166,-0.00020558759570121765,7.870141416788101e-05,-0.0001900792121887207,-150.0244140625,-84.26513671875,399.98779296875,0.91552734375,4.7607421875,0.3662109375
1742912614.5631752,0.00039807334542274475,0.0007977159693837166,0.0005334019660949707,-150.54931640625,-85.3271484375,399.98779296875,0.91552734375,4.94384765625,0.244140625
1742912614.6082516,0.00015138834714889526,6.421469151973724e-05,0.0013649463653564453,-149.853515625,-84.36279296875,399.98779296875,0.9765625,4.7607421875,0.244140625
1742912614.6533997,-9.121932089328766e-05,-0.00041705742478370667,-0.00021827220916748047,-150.20751953125,-85.400390625,399.98779296875,0.9765625,4.7607421875,0.244140625
1742912614.6996875,0.0006306041032075882,-0.00017005857080221176,-0.0005748271942138672,-149.9755859375,-84.6435546875,399.98779296875,0.8544921875,5.06591796875,0.30517578125
1742912614.7437644,0.00038007553666830063,0.00019291043281555176,-0.0006853938102722168,-150.30517578125,-85.48583984375,399.98779296875,0.79345703125,4.94384765625,0.244140625
1742912614.7882268,-0.00046657491475343704,-0.00017043575644493103,-0.0007941126823425293,-149.9267578125,-85.09521484375,399.98779296875,0.91552734375,4.8828125,0.244140625
1742912614.833296,0.0005015581846237183,0.00019253883510828018,0.0008997321128845215,-150.06103515625,-85.29052734375,399.98779296875,0.91552734375,5.0048828125,0.3662109375
1742912614.8790486,-0.0007072584703564644,0.0010297251865267754,-0.0009159445762634277,-149.90234375,-84.41162109375,399.98779296875,0.9765625,4.82177734375,0.3662109375
1742912614.9683516,0.0007450636476278305,5.228351801633835e-05,-0.0007807612419128418,-150.57373046875,-85.31494140625,399.98779296875,0.91552734375,5.0048828125,0.30517578125
1742912615.0153275,-0.0011880937963724136,-0.00054884422570467,-0.0004076957702636719,-149.7802734375,-84.38720703125,399.98779296875,0.79345703125,4.94384765625,0.244140625
1742912615.0593116,-0.00020803511142730713,0.0003005955368280411,0.00031936168670654297,-150.2685546875,-84.7900390625,399.98779296875,1.03759765625,4.8828125,0.3662109375
1742912615.1033032,0.0011159824207425117,-0.000664793886244297,-4.607439041137695e-05,-149.84130859375,-84.06982421875,399.98779296875,0.91552734375,4.94384765625,0.42724609375
1742912615.1488729,0.0004972731694579124,-0.0002936478704214096,0.0003148317337036133,-149.4384765625,-84.5947265625,399.98779296875,1.15966796875,5.0048828125,0.3662109375
1742912615.1932716,-0.00011120922863483429,0.00019141659140586853,-0.000770866870880127,-150.35400390625,-84.11865234375,399.98779296875,0.9765625,4.8828125,0.3662109375
1742912615.2384381,1.0681338608264923e-05,-0.0004120105877518654,0.001162707805633545,-150.1708984375,-84.77783203125,399.98779296875,1.03759765625,5.0048828125,0.3662109375
1742912615.2831962,1.0504387319087982e-05,0.0003151148557662964,-5.704164505004883e-05,-149.96337890625,-84.31396484375,399.98779296875,0.91552734375,4.8828125,0.30517578125
1742912615.3291602,-0.0011901957914233208,-0.0002903565764427185,-0.000296175479888916,-150.23193359375,-84.87548828125,399.98779296875,0.8544921875,4.69970703125,0.30517578125
1742912615.463352,0.00039016082882881165,0.0005548112094402313,0.000308990478515625,-149.658203125,-84.228515625,399.98779296875,0.79345703125,4.7607421875,0.244140625
1742912615.4651434,-0.00021655112504959106,-0.0005348324775695801,0.000664055347442627,-150.40283203125,-84.75341796875,399.98779296875,0.8544921875,4.82177734375,0.30517578125
1742912615.508248,-0.000693182460963726,0.0007945867255330086,5.2809715270996094e-05,-150.50048828125,-84.66796875,399.98779296875,0.79345703125,4.8828125,0.244140625
1742912615.5532124,0.00015864335000514984,-5.891546607017517e-05,-0.0010285377502441406,-150.32958984375,-84.6435546875,399.98779296875,0.9765625,4.82177734375,0.244140625
1742912615.5982862,0.0003961259499192238,0.0005423212423920631,6.896257400512695e-05,-150.0244140625,-84.5703125,399.98779296875,0.9765625,4.7607421875,0.244140625
1742912615.6431787,-0.00021068472415208817,0.000653410330414772,0.0006681084632873535,-150.54931640625,-84.619140625,399.98779296875,0.9765625,4.8828125,0.244140625
1742912615.6882987,-0.000447307713329792,-7.770583033561707e-05,5.6803226470947266e-05,-149.86572265625,-84.619140625,399.98779296875,0.9765625,4.94384765625,0.30517578125
1742912615.7332754,0.000640559010207653,-0.0005566319450736046,-0.0006644725799560547,-150.32958984375,-85.1806640625,399.98779296875,0.91552734375,4.82177734375,0.1220703125
1742912615.7782474,0.0006299717351794243,-0.0006674844771623611,-0.0014938712120056152,-149.67041015625,-84.82666015625,399.98779296875,0.91552734375,4.82177734375,0.30517578125
1742912615.8685489,0.00025940127670764923,-0.0006564520299434662,0.0022524595260620117,-150.45166015625,-85.546875,399.98779296875,0.91552734375,4.7607421875,0.244140625
1742912615.9133508,0.0001350613310933113,0.0005549248307943344,0.000414431095123291,-149.96337890625,-84.68017578125,399.98779296875,1.03759765625,4.82177734375,0.244140625
1742912615.9583147,-0.000227329321205616,-0.00041466858237981796,0.0008878111839294434,-150.390625,-85.2294921875,399.98779296875,0.91552734375,4.8828125,0.18310546875
1742912616.003301,-0.0009438879787921906,7.239636033773422e-05,-0.00020736455917358398,-149.755859375,-84.9853515625,399.98779296875,1.03759765625,5.126953125,0.30517578125
1742912616.0482175,0.00015218742191791534,0.0006714630872011185,-0.0006841421127319336,-150.29296875,-85.16845703125,399.98779296875,0.9765625,4.82177734375,0.244140625
1742912616.0932643,-0.00021048635244369507,6.0101039707660675e-05,-0.0006728172302246094,-149.98779296875,-84.58251953125,399.98779296875,0.91552734375,4.8828125,0.30517578125
1742912616.138398,0.0007534138858318329,0.0002992125228047371,0.0007789134979248047,-150.537109375,-84.89990234375,399.98779296875,0.91552734375,4.8828125,0.3662109375
1742912616.1833434,-0.00021946057677268982,0.0002942671999335289,0.0006459951400756836,-149.96337890625,-84.6435546875,399.98779296875,1.03759765625,5.06591796875,0.3662109375
1742912616.2283568,-0.0005759913474321365,0.0006495611742138863,-8.499622344970703e-05,-149.9755859375,-85.3759765625,399.98779296875,0.9765625,5.0048828125,0.30517578125
1742912616.319298,-0.0005664704367518425,-0.0004416489973664284,-0.0008038878440856934,-149.79248046875,-84.72900390625,399.98779296875,0.8544921875,4.94384765625,0.3662109375
1742912616.3640842,0.0002832608297467232,4.586111754179001e-05,-0.0012708306312561035,-149.4384765625,-84.65576171875,399.98779296875,0.9765625,4.82177734375,0.3662109375
1742912616.4083178,-0.0014021582901477814,0.00028520822525024414,-0.0008896589279174805,-150.1708984375,-84.2529296875,399.98779296875,1.0986328125,4.94384765625,0.48828125
1742912616.4531808,0.00018170196563005447,0.0005205990746617317,-0.0003947615623474121,-150.0732421875,-85.2294921875,399.98779296875,1.03759765625,4.8828125,0.244140625
1742912616.4981673,-0.0006616692990064621,0.001592467539012432,0.00021201372146606445,-149.98779296875,-84.75341796875,399.98779296875,0.91552734375,4.8828125,0.3662109375
1742912616.543211,-0.00017052236944437027,-0.00023464392870664597,0.000568687915802002,-150.1953125,-85.14404296875,399.98779296875,1.03759765625,4.94384765625,0.3662109375
1742912616.588366,7.24010169506073e-05,-0.0008310284465551376,-0.0004011392593383789,-150.20751953125,-84.72900390625,399.98779296875,0.9765625,4.82177734375,0.30517578125
1742912616.6334598,0.0004313625395298004,-0.0003370819613337517,0.00020575523376464844,-150.13427734375,-84.43603515625,399.98779296875,0.79345703125,4.8828125,0.244140625
1742912616.6782644,-0.0011364519596099854,-0.00045156292617321014,0.00020235776901245117,-149.74365234375,-84.16748046875,399.98779296875,0.91552734375,5.06591796875,0.3662109375
1742912616.7232878,-3.7194229662418365e-05,0.00015616416931152344,0.0016396641731262207,-149.853515625,-85.11962890625,399.98779296875,0.91552734375,4.94384765625,0.18310546875
1742912616.813419,0.00032357871532440186,3.353040665388107e-05,0.00029200315475463867,-150.1220703125,-84.7900390625,399.98779296875,0.9765625,4.8828125,0.3662109375
1742912616.8582792,-0.0005221376195549965,0.000273081474006176,-0.0007932782173156738,-150.29296875,-85.2294921875,399.98779296875,0.8544921875,4.82177734375,0.30517578125
1742912616.9033124,8.675549179315567e-05,0.00026856735348701477,0.0005404353141784668,-150.390625,-84.46044921875,399.98779296875,0.79345703125,4.82177734375,0.30517578125
1742912616.9485776,0.00044547952711582184,0.00014407560229301453,0.0008916854858398438,-149.90234375,-84.82666015625,399.98779296875,0.79345703125,4.82177734375,0.30517578125
1742912616.9932451,-0.0005223043262958527,0.0003817994147539139,0.00015664100646972656,-151.03759765625,-84.814453125,399.98779296875,0.91552734375,4.94384765625,0.3662109375
1742912617.038347,-3.346055746078491e-05,0.00013538356870412827,0.0003941655158996582,-150.7080078125,-85.009765625,399.98779296875,1.03759765625,4.8828125,0.30517578125
1742912617.0832734,0.0012876717373728752,0.0008534612134099007,-0.0010529756546020508,-150.40283203125,-85.26611328125,399.98779296875,0.9765625,4.8828125,0.3662109375
1742912617.129217,-0.0016148751601576805,-0.0009614350274205208,-0.0007954835891723633,-150.18310546875,-84.423828125,399.98779296875,1.0986328125,4.82177734375,0.30517578125
1742912617.173243,-0.0001475512981414795,0.00013493001461029053,0.001258552074432373,-149.96337890625,-84.7900390625,399.98779296875,0.9765625,4.94384765625,0.244140625
1742912617.2633162,0.0015356242656707764,0.001093120314180851,0.0013577938079833984,-150.146484375,-84.14306640625,399.98779296875,0.8544921875,5.0048828125,0.54931640625
1742912617.3082316,-0.0012509683147072792,0.00011463090777397156,-0.001065671443939209,-150.10986328125,-84.58251953125,399.98779296875,0.91552734375,4.94384765625,0.30517578125
1742912617.353245,-2.9765069484710693e-05,0.00023278873413801193,0.00027251243591308594,-149.560546875,-84.3994140625,399.98779296875,0.91552734375,4.82177734375,0.244140625
1742912617.398233,-0.000509483739733696,-1.1164695024490356e-05,0.0007482171058654785,-149.93896484375,-84.60693359375,399.98779296875,1.03759765625,4.8828125,0.30517578125
1742912617.4431973,0.00033930595964193344,0.00046923011541366577,0.0003756880760192871,-150.50048828125,-84.5458984375,399.98779296875,0.8544921875,4.82177734375,0.244140625
1742912617.4883761,-2.645980566740036e-05,-1.8736347556114197e-05,9.298324584960938e-06,-149.98779296875,-84.716796875,399.98779296875,0.8544921875,4.8828125,0.244140625
1742912617.5332642,0.00021408312022686005,-0.0006186896935105324,-0.0003510117530822754,-150.732421875,-84.80224609375,399.98779296875,0.8544921875,4.69970703125,0.30517578125
1742912617.5782816,0.0003305971622467041,-0.0003683585673570633,0.0019357800483703613,-150.8544921875,-85.11962890625,399.98779296875,0.91552734375,4.94384765625,0.30517578125
1742912617.623218,-0.00027513038367033005,0.0005981512367725372,0.0010634064674377441,-149.8779296875,-84.65576171875,399.98779296875,0.9765625,4.94384765625,0.244140625
1742912617.71337,-0.0001505305990576744,0.00010805390775203705,-0.0006349086761474609,-150.439453125,-84.5458984375,399.98779296875,0.91552734375,5.06591796875,0.3662109375
1742912617.7582583,0.00021211523562669754,-0.0007341001182794571,-0.0007444620132446289,-150.25634765625,-84.24072265625,399.98779296875,1.03759765625,4.82177734375,0.3662109375
1742912617.8033223,0.0010489774867892265,0.0005986122414469719,-0.00025194883346557617,-151.0009765625,-84.47265625,399.98779296875,1.03759765625,5.0048828125,0.30517578125
1742912617.8483038,0.0005514286458492279,-0.0003717029467225075,0.0007126331329345703,-150.30517578125,-84.716796875,399.98779296875,0.91552734375,4.7607421875,0.30517578125
1742912617.8933973,-0.00017800182104110718,-5.401670932769775e-06,0.000700831413269043,-150.29296875,-85.21728515625,399.98779296875,0.8544921875,4.94384765625,0.18310546875
1742912617.9385927,0.00018509849905967712,-0.000845680944621563,-0.00015109777450561523,-150.45166015625,-84.6435546875,399.98779296875,0.91552734375,5.0048828125,0.30517578125
1742912617.9832442,-0.0005382765084505081,8.665956556797028e-06,-0.00038868188858032227,-150.1220703125,-85.009765625,399.98779296875,0.8544921875,4.8828125,0.42724609375
1742912618.0287502,0.0003109890967607498,-0.000471687875688076,9.79304313659668e-05,-150.2685546875,-84.63134765625,399.98779296875,0.91552734375,4.82177734375,0.244140625
1742912618.1183283,0.00018579605966806412,0.0003764769062399864,0.0010567307472229004,-150.13427734375,-84.87548828125,399.98779296875,0.9765625,5.06591796875,0.244140625
1742912618.1632206,-0.0007776962593197823,-0.00010995659977197647,-0.0006414651870727539,-150.341796875,-84.46044921875,399.98779296875,0.91552734375,4.8828125,0.30517578125
1742912618.2082012,-0.0008848942816257477,-0.00010813958942890167,-0.00039076805114746094,-150.537109375,-85.04638671875,399.98779296875,0.91552734375,4.82177734375,0.30517578125
1742912618.2531574,-0.0001499522477388382,-0.0007066149264574051,-2.4139881134033203e-05,-149.7802734375,-84.19189453125,399.98779296875,0.91552734375,4.8828125,0.3662109375
1742912618.2982936,-0.00026752613484859467,0.0014660116285085678,0.0027374625205993652,-150.2197265625,-85.16845703125,399.98779296875,0.9765625,4.82177734375,0.18310546875
1742912618.3432684,0.002137947827577591,-0.00023895688354969025,5.1081180572509766e-05,-149.93896484375,-84.619140625,399.98779296875,0.8544921875,4.82177734375,0.244140625
1742912618.3885465,0.0004218732938170433,0.000125151127576828,-6.979703903198242e-05,-150.67138671875,-85.302734375,399.98779296875,0.9765625,4.94384765625,0.244140625
1742912618.4336975,0.00029484741389751434,-0.0001170225441455841,-0.0012691617012023926,-150.1953125,-84.16748046875,399.98779296875,0.732421875,4.94384765625,0.30517578125
1742912618.4782252,0.00016992166638374329,-0.00011508818715810776,0.0006726384162902832,-150.84228515625,-85.3759765625,399.98779296875,0.8544921875,4.8828125,0.3662109375
1742912618.5232737,-0.00031309761106967926,0.0007271822541952133,0.0004214048385620117,-150.37841796875,-84.7900390625,399.98779296875,0.91552734375,4.94384765625,0.30517578125
1742912618.6133144,-0.000668080523610115,-0.0002452582120895386,-0.0005459785461425781,-150.5615234375,-84.9365234375,399.98779296875,0.9765625,4.94384765625,0.30517578125
1742912618.6582315,0.00018333084881305695,0.000479111447930336,0.0009036660194396973,-150.15869140625,-84.521484375,399.98779296875,1.03759765625,4.69970703125,0.244140625
1742912618.703148,0.00018030032515525818,0.0003511393442749977,-0.0007920265197753906,-149.86572265625,-85.009765625,399.98779296875,0.91552734375,4.7607421875,0.30517578125
1742912618.748638,0.0005374783650040627,-0.0006150854751467705,0.0006616711616516113,-150.10986328125,-84.28955078125,399.98779296875,0.8544921875,4.82177734375,0.244140625
1742912618.7931695,-7.166899740695953e-05,0.00023544952273368835,0.0012509822845458984,-150.23193359375,-85.43701171875,399.98779296875,0.91552734375,4.94384765625,0.244140625
1742912618.8383594,4.956778138875961e-05,-0.00012859981507062912,0.00014984607696533203,-150.1953125,-84.375,399.98779296875,0.91552734375,4.69970703125,0.244140625
1742912618.883192,0.00016880128532648087,-0.0009668422862887383,-0.00033283233642578125,-150.1953125,-85.498046875,399.98779296875,0.9765625,5.0048828125,0.3662109375
1742912618.9282603,-7.409416139125824e-05,-0.00023054610937833786,0.0006330609321594238,-150.40283203125,-84.326171875,399.98779296875,0.91552734375,4.94384765625,0.30517578125
1742912618.9731998,0.0007674992084503174,0.00013342220336198807,0.0014629364013671875,-150.2685546875,-84.89990234375,399.98779296875,0.9765625,4.8828125,0.30517578125
1742912619.0633209,0.0012350240722298622,0.0007314803078770638,0.00023823976516723633,-150.23193359375,-84.3994140625,399.98779296875,0.9765625,4.82177734375,0.244140625
1742912619.108233,0.00037424173206090927,-0.000841294415295124,-0.0002459287643432617,-150.8544921875,-85.36376953125,399.98779296875,0.9765625,4.82177734375,0.30517578125
1742912619.153294,0.00048810895532369614,-0.0009474409744143486,-0.001322329044342041,-150.390625,-84.46044921875,399.98779296875,0.9765625,4.8828125,0.18310546875
1742912619.198703,-1.695007085800171e-07,-0.0008117277175188065,-0.00046008825302124023,-150.72021484375,-84.8388671875,399.98779296875,0.8544921875,4.82177734375,0.30517578125
1742912619.2432554,0.00035999156534671783,-0.000678258016705513,0.0019485950469970703,-150.15869140625,-84.26513671875,399.98779296875,0.79345703125,4.82177734375,0.18310546875
1742912619.2883086,0.00035404134541749954,0.0005334792658686638,0.0009559392929077148,-150.48828125,-84.9853515625,399.98779296875,0.8544921875,4.82177734375,0.244140625
1742912619.333235,-0.0006122319027781487,0.0005246615037322044,0.0007000565528869629,-151.0009765625,-84.716796875,399.98779296875,0.91552734375,4.69970703125,0.3662109375
1742912619.3782115,-0.0001219017431139946,3.577861934900284e-05,-0.0011122822761535645,-150.96435546875,-85.41259765625,399.98779296875,0.9765625,4.82177734375,0.30517578125
1742912619.4683292,-0.00011988729238510132,-0.000324971042573452,-0.00037360191345214844,-150.96435546875,-83.6181640625,399.98779296875,0.9765625,4.8828125,0.244140625
1742912619.514218,-0.0005981158465147018,0.00016061123460531235,0.0004729628562927246,-150.6103515625,-85.11962890625,399.98779296875,0.79345703125,4.94384765625,0.30517578125
1742912619.558188,-0.00022807158529758453,-0.0004423065111041069,0.0005851984024047852,-150.20751953125,-84.68017578125,399.98779296875,0.9765625,4.8828125,0.3662109375
1742912619.603233,-0.00034435465931892395,-7.483735680580139e-05,-0.00026482343673706055,-150.244140625,-85.400390625,399.98779296875,0.91552734375,4.94384765625,0.244140625
1742912619.6495254,0.0005017053335905075,-0.00031370576471090317,-0.0006206035614013672,-149.93896484375,-84.04541015625,399.98779296875,1.03759765625,5.0048828125,0.30517578125
1742912619.6935103,0.00025330763310194016,-0.0005486253648996353,-0.0007303953170776367,-149.853515625,-84.8876953125,399.98779296875,0.9765625,4.7607421875,0.3662109375
1742912619.7383928,0.0010894890874624252,0.0006609689444303513,0.0019228458404541016,-149.3896484375,-84.41162109375,399.98779296875,0.91552734375,4.82177734375,0.3662109375
1742912619.783096,-0.00012904498726129532,0.0006500435993075371,0.0012907981872558594,-150.10986328125,-84.94873046875,399.98779296875,0.8544921875,4.8828125,0.3662109375
1742912619.8297367,-0.0006071226671338081,0.00015908852219581604,-0.0010115504264831543,-150.13427734375,-84.3994140625,399.98779296875,0.9765625,5.0048828125,0.30517578125
1742912619.8732383,-0.00011687725782394409,-0.0006839092820882797,-0.0009948015213012695,-149.96337890625,-84.77783203125,399.98779296875,1.03759765625,4.7607421875,0.30517578125
1742912619.9633312,0.00012515950947999954,-7.234234362840652e-05,0.0008224248886108398,-150.2685546875,-84.521484375,399.98779296875,0.9765625,4.94384765625,0.18310546875
1742912620.0085714,-0.0010774359107017517,0.000769222155213356,0.0008088350296020508,-150.68359375,-84.80224609375,399.98779296875,1.03759765625,4.82177734375,0.244140625
1742912620.0544944,0.00014089886099100113,3.619212657213211e-05,-0.0014855265617370605,-149.9755859375,-84.2529296875,399.98779296875,0.91552734375,4.94384765625,0.18310546875
1742912620.0997026,0.00037867482751607895,0.00039575155824422836,-0.0008606910705566406,-150.01220703125,-84.9365234375,399.98779296875,0.9765625,4.94384765625,0.30517578125
1742912620.1432676,0.0008526258170604706,-0.0006912630051374435,-0.0006063580513000488,-149.4873046875,-84.09423828125,399.98779296875,0.8544921875,4.94384765625,0.3662109375
1742912620.1882293,-0.0010823095217347145,0.00016053114086389542,0.0006042122840881348,-149.62158203125,-85.11962890625,399.98779296875,0.8544921875,4.8828125,0.3662109375
1742912620.2342026,0.0008564218878746033,0.00015787780284881592,-0.0002461671829223633,-149.1943359375,-84.5947265625,399.98779296875,0.9765625,4.8828125,0.244140625
1742912620.2782376,-0.0008384706452488899,-0.0010452577844262123,-0.0016827583312988281,-149.79248046875,-84.53369140625,399.98779296875,0.9765625,4.82177734375,0.30517578125
1742912620.324261,-0.00010429602116346359,-0.0005477704107761383,2.580881118774414e-05,-149.91455078125,-84.27734375,399.98779296875,0.9765625,4.7607421875,0.30517578125
1742912620.3695462,0.000977901741862297,-0.00041866395622491837,-0.0018954873085021973,-149.2431640625,-84.43603515625,399.98779296875,1.03759765625,4.8828125,0.244140625
1742912620.458362,0.0010817907750606537,-0.0002916911616921425,-0.0010237693786621094,-149.42626953125,-84.21630859375,399.98779296875,0.91552734375,4.82177734375,0.1220703125
1742912620.5032475,-0.0002566687762737274,-0.0001668175682425499,0.0023546218872070312,-150.03662109375,-85.6689453125,399.98779296875,0.91552734375,5.06591796875,0.30517578125
1742912620.548639,0.0003478368744254112,0.00019609741866588593,0.001955568790435791,-149.7314453125,-84.47265625,399.98779296875,1.03759765625,4.8828125,0.30517578125
1742912620.5942535,-0.00025817565619945526,0.0009131720289587975,-0.0009580254554748535,-150.29296875,-84.9609375,399.98779296875,0.91552734375,4.94384765625,0.42724609375
1742912620.6393416,-0.0006140666082501411,5.771033465862274e-05,-0.0019026398658752441,-150.1220703125,-84.5703125,399.98779296875,0.8544921875,4.8828125,0.18310546875
1742912620.6832714,0.0003565046936273575,-0.00018334854394197464,0.0008900165557861328,-150.537109375,-85.14404296875,399.98779296875,1.03759765625,4.94384765625,0.244140625
1742912620.728343,0.0005907174199819565,0.00041994545608758926,0.0014755725860595703,-149.74365234375,-84.11865234375,399.98779296875,0.91552734375,5.126953125,0.30517578125
1742912620.773297,-0.0001393621787428856,-0.00018725916743278503,-0.000349581241607666,-150.30517578125,-84.58251953125,399.98779296875,0.9765625,5.0048828125,0.244140625
1742912620.819169,-0.0001370590180158615,0.0002960469573736191,-0.0022646188735961914,-149.853515625,-84.716796875,399.98779296875,0.91552734375,5.0048828125,0.30517578125
1742912620.9092457,-0.0002548461779952049,-0.0006692670285701752,-0.0016269087791442871,-150.01220703125,-84.58251953125,399.98779296875,0.91552734375,5.126953125,0.244140625
1742912620.9541695,-0.0009709494188427925,0.000302216038107872,0.0021216273307800293,-149.267578125,-84.46044921875,399.98779296875,0.9765625,5.0048828125,0.30517578125
1742912620.9991505,0.0012060469016432762,0.00017716828733682632,0.0005258917808532715,-150.244140625,-84.60693359375,399.98779296875,1.15966796875,4.8828125,0.30517578125
1742912621.0430968,-0.0002545192837715149,5.4187141358852386e-05,0.0001570582389831543,-149.98779296875,-84.3505859375,399.98779296875,0.9765625,4.8828125,0.30517578125
1742912621.0894597,0.00034995097666978836,-0.0005469713360071182,-0.0010460615158081055,-150.42724609375,-84.82666015625,399.98779296875,0.8544921875,4.94384765625,0.244140625
1742912621.1341312,-0.0004962021484971046,-5.7719647884368896e-05,0.0006519556045532227,-149.4873046875,-84.08203125,399.98779296875,0.8544921875,5.0048828125,0.30517578125
1742912621.179153,-0.00012784264981746674,0.0006635505706071854,-0.0003192424774169922,-150.3173828125,-84.92431640625,399.98779296875,0.9765625,4.8828125,0.42724609375
1742912621.224268,-0.00036583468317985535,-6.773322820663452e-05,-0.0005540847778320312,-149.7802734375,-84.31396484375,399.98779296875,0.9765625,4.82177734375,0.244140625
1742912621.2692342,3.6973506212234497e-07,0.0002935444936156273,0.0006555914878845215,-150.146484375,-84.5703125,399.98779296875,0.91552734375,4.94384765625,0.30517578125
1742912621.3592317,0.00024046842008829117,-0.0003115702420473099,-0.000795900821685791,-150.15869140625,-84.36279296875,399.98779296875,0.91552734375,4.94384765625,0.42724609375
1742912621.405189,-3.6116689443588257e-06,0.00029384251683950424,-0.0001825094223022461,-150.35400390625,-84.5947265625,399.98779296875,1.03759765625,4.94384765625,0.244140625
1742912621.4496033,-3.552064299583435e-06,-0.0007914882153272629,0.0015012621879577637,-150.01220703125,-84.2529296875,399.98779296875,0.8544921875,4.94384765625,0.244140625
1742912621.494246,-0.0009639142081141472,-0.00017814245074987411,0.0005159974098205566,-150.0244140625,-84.58251953125,399.98779296875,0.79345703125,4.82177734375,0.3662109375
1742912621.5395288,-0.00046777166426181793,6.490759551525116e-05,-0.00045293569564819336,-150.06103515625,-84.28955078125,399.98779296875,0.91552734375,4.7607421875,0.3662109375
1742912621.5848672,2.0170584321022034e-05,-0.0010166391730308533,-0.0002053380012512207,-150.7568359375,-84.43603515625,399.98779296875,0.67138671875,4.8828125,0.244140625
1742912621.629219,-0.0005804263055324554,8.063856512308121e-05,0.0009985566139221191,-150.244140625,-84.423828125,399.98779296875,0.91552734375,4.7607421875,0.244140625
1742912621.6734428,-0.0002106744796037674,0.00019935797899961472,-0.00033855438232421875,-150.03662109375,-84.4970703125,399.98779296875,0.91552734375,4.82177734375,0.18310546875
1742912621.76444,-0.0006874026730656624,-0.0006443057209253311,-9.28640365600586e-05,-150.30517578125,-84.27734375,399.98779296875,0.79345703125,4.7607421875,0.3662109375
1742912621.8091638,0.00040443334728479385,-0.00015344563871622086,-0.000451505184173584,-150.15869140625,-84.619140625,399.98779296875,0.8544921875,4.82177734375,0.30517578125
1742912621.855196,0.00039774831384420395,-0.0012313826009631157,0.00027626752853393555,-150.1708984375,-84.228515625,399.98779296875,0.8544921875,4.69970703125,0.30517578125
1742912621.8991544,-0.0008093519136309624,0.00010954961180686951,0.0003917813301086426,-149.7314453125,-84.3505859375,399.98779296875,0.9765625,4.82177734375,0.3662109375
1742912621.9441628,0.0001644464209675789,0.0007080016657710075,0.0007454752922058105,-149.10888671875,-84.1064453125,399.98779296875,0.91552734375,5.0048828125,0.3662109375
1742912621.9894838,4.167575389146805e-05,-0.0005042273551225662,0.0008531808853149414,-149.560546875,-84.48486328125,399.98779296875,1.03759765625,4.94384765625,0.244140625
1742912622.0351183,4.0986575186252594e-05,0.0002244226634502411,-0.0009617209434509277,-149.30419921875,-84.04541015625,399.98779296875,0.91552734375,5.0048828125,0.18310546875
1742912622.078206,0.0001603616401553154,0.00010066013783216476,-0.0005856752395629883,-149.57275390625,-84.36279296875,399.98779296875,0.79345703125,4.82177734375,0.244140625
1742912622.1242695,-0.0009227627888321877,0.00021904893219470978,-9.578466415405273e-05,-149.755859375,-84.58251953125,399.98779296875,0.9765625,4.82177734375,0.18310546875
1742912622.2143068,0.00017296336591243744,9.537581354379654e-05,-0.0005744099617004395,-149.7802734375,-84.38720703125,399.98779296875,0.9765625,4.94384765625,0.244140625
1742912622.259741,0.0005302624776959419,0.0009341677650809288,-0.0008050203323364258,-150.25634765625,-84.6435546875,399.98779296875,0.79345703125,4.8828125,0.3662109375
1742912622.3032005,-0.0007990812882781029,0.001038779504597187,-0.0004315376281738281,-149.96337890625,-84.0576171875,399.98779296875,0.91552734375,4.82177734375,0.244140625
1742912622.349313,-6.555765867233276e-05,0.0001812409609556198,-0.0006645321846008301,-150.1953125,-84.4970703125,399.98779296875,0.79345703125,4.8828125,0.30517578125
1742912622.3942173,0.0005357889458537102,0.0006584553048014641,-0.0012537837028503418,-150.15869140625,-84.43603515625,399.98779296875,0.91552734375,4.94384765625,0.30517578125
1742912622.4397542,0.0008870912715792656,-0.0004329020157456398,0.00020754337310791016,-149.560546875,-84.6435546875,399.98779296875,0.91552734375,4.8828125,0.3662109375
1742912622.4842498,-8.799228817224503e-05,-0.0005457988008856773,0.000564277172088623,-149.3408203125,-84.1552734375,399.98779296875,0.8544921875,4.8828125,0.30517578125
1742912622.529269,-0.00044669583439826965,-0.0001766197383403778,-0.0013659000396728516,-149.74365234375,-84.19189453125,399.98779296875,0.8544921875,4.8828125,0.3662109375
1742912622.6192718,-0.0007994705811142921,0.0006666677072644234,-0.00014281272888183594,-149.71923828125,-83.70361328125,399.98779296875,0.9765625,4.94384765625,0.30517578125
1742912622.6194005,0.0002942178398370743,0.0004155430942773819,0.0009400248527526855,-149.4140625,-84.5458984375,399.98779296875,0.79345703125,4.8828125,0.3662109375
1742912622.7092948,-0.0005510132759809494,-0.0006717992946505547,0.0010445117950439453,-149.3408203125,-83.70361328125,399.98779296875,0.79345703125,5.126953125,0.30517578125
1742912622.75418,0.0007786732167005539,0.0005398308858275414,-0.0011336803436279297,-149.52392578125,-84.521484375,399.98779296875,0.9765625,4.8828125,0.18310546875
1742912622.7991648,-0.0005547758191823959,-0.0004295129328966141,0.0008059144020080566,-149.81689453125,-84.228515625,399.98779296875,0.8544921875,4.8828125,0.244140625
1742912622.8441758,0.00029476266354322433,-0.0005424665287137032,-0.0001678466796875,-150.15869140625,-84.7412109375,399.98779296875,1.0986328125,4.94384765625,0.30517578125
1742912622.8892057,0.00028989091515541077,0.00018681585788726807,-4.500150680541992e-05,-150.08544921875,-84.375,399.98779296875,0.732421875,4.82177734375,0.244140625
1742912622.9342957,-7.505808025598526e-05,-0.0005365880206227303,-0.001124739646911621,-150.25634765625,-84.86328125,399.98779296875,0.91552734375,4.7607421875,0.18310546875
1742912622.9793801,0.0001662876456975937,7.254444062709808e-05,9.435415267944336e-05,-150.5126953125,-84.66796875,399.98779296875,0.9765625,5.06591796875,0.18310546875
1742912623.0241668,-0.0001966189593076706,-0.00028881244361400604,0.0015334486961364746,-150.03662109375,-84.82666015625,399.98779296875,0.9765625,4.82177734375,0.3662109375
1742912623.0683298,-0.0005535269156098366,0.0003162240609526634,-0.00017261505126953125,-150.37841796875,-84.53369140625,399.98779296875,1.0986328125,4.8828125,0.244140625
1742912623.1593332,-6.416719406843185e-05,0.0004310496151447296,0.0003104209899902344,-150.439453125,-84.8876953125,399.98779296875,0.91552734375,4.94384765625,0.30517578125
1742912623.2041452,5.6945718824863434e-05,0.0012642927467823029,-0.0004150271415710449,-149.89013671875,-84.43603515625,399.98779296875,0.9765625,4.8828125,0.30517578125
1742912623.2492902,-6.404798477888107e-05,0.0002829739823937416,0.0003121495246887207,-149.462890625,-84.9609375,399.98779296875,0.8544921875,4.7607421875,0.244140625
1742912623.2942538,0.000417221337556839,-0.0008021770045161247,0.001387476921081543,-149.609375,-84.1552734375,399.98779296875,0.8544921875,4.94384765625,0.3662109375
1742912623.3402474,-0.000309990718960762,5.145091563463211e-05,-0.0013966560363769531,-150.15869140625,-85.107421875,399.98779296875,0.91552734375,4.82177734375,0.244140625
1742912623.3852844,0.00029539596289396286,-0.000549662858247757,-0.000773310661315918,-149.93896484375,-84.912109375,399.98779296875,0.91552734375,4.8828125,0.244140625
1742912623.4292045,-0.0009100129827857018,5.968566983938217e-05,0.000680088996887207,-149.84130859375,-84.87548828125,399.98779296875,0.79345703125,4.7607421875,0.30517578125
1742912623.4752135,0.0006657131016254425,-0.0007816692814230919,0.00042873620986938477,-149.52392578125,-84.228515625,399.98779296875,0.8544921875,4.82177734375,0.18310546875
1742912623.5192325,-0.0003057112917304039,0.0006718821823596954,0.00018155574798583984,-150.1220703125,-84.58251953125,399.98779296875,0.91552734375,5.0048828125,0.30517578125
1742912623.564999,0.0015001315623521805,-0.0008999072015285492,0.0005387067794799805,-149.51171875,-83.8134765625,399.98779296875,0.732421875,4.94384765625,0.244140625
1742912623.65332,0.0003948621451854706,-0.000164717435836792,0.0010100007057189941,-149.560546875,-85.05859375,399.98779296875,0.8544921875,4.8828125,0.244140625
1742912623.6992176,-9.187497198581696e-05,0.0007984265685081482,-0.0002072453498840332,-149.609375,-83.9111328125,399.98779296875,0.9765625,4.82177734375,0.244140625
1742912623.7432218,0.0002698013558983803,-0.0006554024294018745,-0.0006840229034423828,-150.42724609375,-84.9853515625,399.98779296875,0.8544921875,4.7607421875,0.3662109375
1742912623.7894452,-9.481608867645264e-05,0.0006760098040103912,-0.0011529326438903809,-150.29296875,-84.14306640625,399.98779296875,1.03759765625,5.0048828125,0.244140625
1742912623.8342066,0.00014685653150081635,0.0004247305914759636,0.00042682886123657227,-150.1708984375,-84.75341796875,399.98779296875,1.03759765625,5.06591796875,0.244140625
1742912623.8803444,-9.567569941282272e-05,5.755200982093811e-05,0.00017964839935302734,-150.1953125,-84.16748046875,399.98779296875,0.79345703125,4.7607421875,0.18310546875
1742912623.9252584,-0.00033419951796531677,-6.345193833112717e-05,0.00041675567626953125,-149.609375,-84.89990234375,399.98779296875,0.91552734375,4.69970703125,0.30517578125
1742912623.9692245,0.0001515345647931099,-0.0010228240862488747,0.0006499886512756348,-150.28076171875,-84.48486328125,399.98779296875,0.79345703125,4.7607421875,0.244140625
1742912624.0592804,0.0006292406469583511,0.0004347134381532669,0.0002790689468383789,-150.72021484375,-85.31494140625,399.98779296875,0.8544921875,4.82177734375,0.244140625
1742912624.1041877,-0.00034158118069171906,0.0003074752166867256,0.0005145668983459473,-150.42724609375,-84.1796875,399.98779296875,0.91552734375,4.82177734375,0.18310546875
1742912624.1491506,-0.0006960928440093994,-0.0007780808955430984,-0.0002142786979675293,-150.59814453125,-84.92431640625,399.98779296875,1.03759765625,4.8828125,0.18310546875
1742912624.1941638,0.000756043940782547,-4.490464925765991e-05,0.0009897947311401367,-150.10986328125,-83.77685546875,399.98779296875,0.91552734375,4.8828125,0.244140625
1742912624.2405798,-0.000577031634747982,0.0004360480234026909,0.00013303756713867188,-150.25634765625,-84.97314453125,399.98779296875,0.91552734375,5.06591796875,0.244140625
1742912624.2841778,-0.00044744089245796204,6.868317723274231e-05,-0.0010696649551391602,-150.390625,-83.72802734375,399.98779296875,0.91552734375,4.7607421875,0.3662109375
1742912624.3293593,0.0010005859658122063,0.00030765309929847717,-0.000691831111907959,-149.5361328125,-85.15625,399.98779296875,0.732421875,4.8828125,0.244140625
1742912624.3742144,-0.0005766367539763451,-0.00041774753481149673,-8.0108642578125e-05,-149.79248046875,-83.72802734375,399.98779296875,1.0986328125,4.69970703125,0.30517578125
1742912624.4191751,0.0007534734904766083,-5.068443715572357e-05,0.0016019344329833984,-149.9755859375,-84.87548828125,399.98779296875,0.8544921875,4.82177734375,0.244140625
1742912624.509332,0.0003808615729212761,-4.984624683856964e-05,1.4781951904296875e-05,-149.90234375,-84.326171875,399.98779296875,0.79345703125,4.69970703125,0.18310546875
1742912624.5542526,-0.00034574978053569794,-0.0002891272306442261,-0.00046569108963012695,-150.37841796875,-84.6923828125,399.98779296875,0.91552734375,5.0048828125,0.1220703125
1742912624.599205,-0.0007001925259828568,0.0001958617940545082,-0.00033795833587646484,-150.50048828125,-83.72802734375,399.98779296875,0.732421875,4.7607421875,0.244140625
1742912624.6442182,0.00027180183678865433,0.0011530453339219093,0.0020686984062194824,-149.853515625,-84.92431640625,399.98779296875,0.8544921875,4.8828125,0.244140625
1742912624.6893694,-0.000212901271879673,5.351286381483078e-05,-0.00024646520614624023,-149.90234375,-83.88671875,399.98779296875,1.03759765625,5.0048828125,0.30517578125
1742912624.73448,-0.0009296983480453491,-0.00018747709691524506,-0.0018031001091003418,-149.4384765625,-83.4228515625,399.98779296875,0.8544921875,4.69970703125,0.1220703125
1742912624.7792425,-0.0003140680491924286,-0.0005445359274744987,-0.0017732977867126465,-149.5849609375,-83.5693359375,399.98779296875,0.91552734375,4.69970703125,0.18310546875
1742912624.8241818,0.0007715970277786255,-0.0007756408303976059,0.000777125358581543,-149.91455078125,-83.9599609375,399.98779296875,0.8544921875,4.94384765625,0.18310546875
1742912624.8692272,0.0003986852243542671,0.00043770577758550644,0.0002840757369995117,-149.25537109375,-83.82568359375,399.98779296875,0.9765625,4.8828125,0.30517578125
1742912624.9591947,-8.811522275209427e-05,0.0005505234003067017,0.0005195140838623047,-149.57275390625,-84.16748046875,399.98779296875,0.79345703125,4.7607421875,0.30517578125
1742912625.0041761,-0.0008069742470979691,-0.0022197868674993515,-0.0014098882675170898,-149.98779296875,-83.50830078125,399.98779296875,0.8544921875,4.94384765625,0.30517578125
1742912625.0491688,0.0006469953805208206,-0.00026225391775369644,0.0011345148086547852,-149.12109375,-84.28955078125,399.98779296875,0.8544921875,4.7607421875,0.18310546875
1742912625.0942411,-0.00020406674593687057,-0.000257919542491436,0.0020762085914611816,-149.54833984375,-83.41064453125,399.98779296875,0.91552734375,5.06591796875,0.30517578125
1742912625.1394522,0.0006396742537617683,0.00022655446082353592,0.0014415979385375977,-149.6337890625,-83.99658203125,399.98779296875,0.8544921875,4.8828125,0.30517578125
1742912625.1851897,-0.0005714250728487968,0.00010275747627019882,-0.0013434290885925293,-149.21875,-83.50830078125,399.98779296875,0.91552734375,4.7607421875,0.18310546875
1742912625.229208,-0.00020182225853204727,-0.0004992038011550903,-0.0010811090469360352,-150.42724609375,-84.5947265625,399.98779296875,0.79345703125,4.94384765625,0.244140625
1742912625.2740564,0.00028172414749860764,-0.0001307949423789978,-0.0017835497856140137,-150.68359375,-83.67919921875,399.98779296875,1.03759765625,5.0048828125,0.48828125
1742912625.3192062,-8.309073746204376e-05,-0.0008489489555358887,0.0016074180603027344,-150.7080078125,-84.9365234375,399.98779296875,1.03759765625,4.94384765625,0.30517578125
1742912625.3641975,-0.0008020326495170593,5.451962351799011e-06,0.001820981502532959,-150.732421875,-83.89892578125,399.98779296875,1.03759765625,5.06591796875,0.244140625
1742912625.4542353,-0.0007887762039899826,0.00024546682834625244,-0.0007302165031433105,-150.7568359375,-84.92431640625,399.98779296875,0.91552734375,4.8828125,0.244140625
1742912625.4991615,-0.00017547514289617538,0.00012135691940784454,-0.0017986297607421875,-150.06103515625,-84.14306640625,399.98779296875,0.79345703125,5.0048828125,0.244140625
1742912625.5447192,0.00042768847197294235,0.00023940391838550568,-0.00020819902420043945,-150.3173828125,-84.65576171875,399.98779296875,0.8544921875,4.8828125,0.42724609375
1742912625.5897424,-0.00029969681054353714,-0.0013252375647425652,0.00015538930892944336,-150.3662109375,-84.14306640625,399.98779296875,1.03759765625,5.0048828125,0.3662109375
1742912625.6342921,0.0003055203706026077,0.0010977191850543022,-0.0004474520683288574,-150.47607421875,-84.41162109375,399.98779296875,0.8544921875,4.7607421875,0.1220703125
1742912625.6793633,0.0009007332846522331,0.00035925954580307007,0.0008805394172668457,-149.853515625,-84.2529296875,399.98779296875,0.79345703125,4.8828125,0.18310546875
1742912625.7243748,0.001246003434062004,0.0007134797051548958,0.0001456737518310547,-150.0244140625,-84.26513671875,399.98779296875,0.9765625,4.82177734375,0.18310546875
1742912625.769331,0.0007451977580785751,-0.00013868138194084167,0.0007435083389282227,-150.32958984375,-84.033203125,399.98779296875,0.8544921875,4.8828125,0.244140625
1742912625.814367,-0.0011879615485668182,0.0011841896921396255,0.0002509951591491699,-150.3173828125,-84.87548828125,399.98779296875,0.8544921875,4.94384765625,0.30517578125
1742912625.9043138,0.0005124108865857124,0.0003242483362555504,-0.00095367431640625,-149.69482421875,-84.02099609375,399.98779296875,0.9765625,4.8828125,0.30517578125
1742912625.9492145,-0.0010567428544163704,-0.0007615843787789345,0.0003826618194580078,-149.71923828125,-84.6435546875,399.98779296875,0.91552734375,4.82177734375,0.18310546875
1742912625.9942482,0.00016125012189149857,-0.0006289435550570488,-0.0008242130279541016,-150.08544921875,-84.1796875,399.98779296875,0.9765625,4.7607421875,0.18310546875
1742912626.039546,0.0006387950852513313,0.0004619257524609566,-9.03010368347168e-05,-149.98779296875,-84.7412109375,399.98779296875,0.732421875,4.94384765625,0.30517578125
1742912626.0844498,-0.000932447612285614,0.000334237702190876,-8.881092071533203e-05,-150.28076171875,-83.87451171875,399.98779296875,0.91552734375,4.8828125,0.30517578125
1742912626.129311,-0.0009170351549983025,0.0008089235052466393,-0.00020742416381835938,-150.10986328125,-84.86328125,399.98779296875,0.732421875,4.7607421875,0.30517578125
1742912626.17415,0.0005387542769312859,-0.00040497351437807083,0.0015968084335327148,-150.30517578125,-84.65576171875,399.98779296875,0.9765625,4.8828125,0.30517578125
1742912626.2191024,-0.0005506239831447601,-3.812182694673538e-05,0.0001297593116760254,-149.81689453125,-84.716796875,399.98779296875,0.9765625,4.82177734375,0.18310546875
1742912626.2641141,0.00041889864951372147,-0.000877860002219677,0.00024765729904174805,-149.84130859375,-84.27734375,399.98779296875,0.91552734375,4.8828125,0.3662109375
1742912626.3543038,0.0007721325382590294,0.0011775447055697441,3.4570693969726562e-06,-149.462890625,-84.65576171875,399.98779296875,0.9765625,4.94384765625,0.30517578125
1742912626.3992183,0.0002791592851281166,-0.0005226554349064827,-0.00023669004440307617,-150.5126953125,-84.2041015625,399.98779296875,0.9765625,4.94384765625,0.1220703125
1742912626.445327,-0.0004457710310816765,0.0009266147390007973,-0.0010731220245361328,-150.68359375,-84.9853515625,399.98779296875,0.9765625,4.8828125,0.1220703125
1742912626.489535,0.0007621236145496368,0.0009112991392612457,2.5093555450439453e-05,-150.537109375,-84.521484375,399.98779296875,0.9765625,4.94384765625,0.18310546875
1742912626.5342224,0.0003893682733178139,-0.00042434222996234894,0.0017054080963134766,-151.2939453125,-84.9609375,399.98779296875,0.79345703125,4.82177734375,0.30517578125
1742912626.579295,-0.0003373837098479271,0.0004230402410030365,-0.000603795051574707,-150.2685546875,-84.50927734375,399.98779296875,0.91552734375,4.94384765625,0.3662109375
1742912626.6245766,0.0002684555947780609,5.588959902524948e-05,-0.0005938410758972168,-150.0,-84.72900390625,399.98779296875,1.03759765625,4.94384765625,0.42724609375
1742912626.6692896,0.0002640187740325928,5.4965727031230927e-05,-0.0008241534233093262,-149.70703125,-84.326171875,399.98779296875,0.8544921875,4.82177734375,0.30517578125
1742912626.7151642,1.954939216375351e-05,0.0012545837089419365,0.0005100369453430176,-149.658203125,-84.53369140625,399.98779296875,0.9765625,4.8828125,0.3662109375
1742912626.8043766,-0.00010082591325044632,-0.0003268374130129814,0.00014144182205200195,-149.79248046875,-84.19189453125,399.98779296875,0.732421875,4.8828125,0.30517578125
1742912626.849351,-0.0002192119136452675,-0.0005615400150418282,-0.0008212924003601074,-149.658203125,-84.58251953125,399.98779296875,1.03759765625,4.8828125,0.30517578125
1742912626.8952138,-0.00033564120531082153,-0.0007923636585474014,0.0007529854774475098,-150.29296875,-84.423828125,399.98779296875,0.732421875,5.0048828125,0.30517578125
1742912626.9391758,-0.0009303567931056023,0.00030120648443698883,-0.0005800127983093262,-150.4638671875,-84.765625,399.98779296875,0.91552734375,4.94384765625,0.3662109375
1742912626.9850917,-7.461104542016983e-05,-6.392970681190491e-05,0.00026994943618774414,-149.609375,-84.5703125,399.98779296875,0.9765625,5.0048828125,0.18310546875
1742912627.0292044,0.0007669907063245773,0.00029728468507528305,0.0011058449745178223,-149.71923828125,-84.521484375,399.98779296875,1.0986328125,4.7607421875,0.18310546875
1742912627.0743303,-0.00032616034150123596,0.0006525283679366112,0.0008474588394165039,-149.8291015625,-83.984375,399.98779296875,0.8544921875,4.69970703125,0.3662109375
1742912627.1192615,-0.0008009793236851692,-0.0007988885045051575,0.0008334517478942871,-150.48828125,-84.53369140625,399.98779296875,0.9765625,4.94384765625,0.18310546875
1742912627.1642444,0.0004127863794565201,-0.00018542073667049408,9.936094284057617e-05,-150.10986328125,-84.68017578125,399.98779296875,0.9765625,4.8828125,0.3662109375
1742912627.254342,0.0002859104424715042,0.00077806506305933,-2.2351741790771484e-05,-149.70703125,-84.228515625,399.98779296875,0.9765625,4.69970703125,0.18310546875
1742912627.2993267,0.0001611318439245224,-0.000675426796078682,-0.00014203786849975586,-150.03662109375,-84.3017578125,399.98779296875,1.03759765625,4.7607421875,0.3662109375
1742912627.344282,-0.0004417942836880684,-0.00018405262380838394,-0.0007399320602416992,-149.93896484375,-84.11865234375,399.98779296875,0.9765625,4.94384765625,0.244140625
1742912627.3898222,0.0008860873058438301,0.00017914734780788422,0.0009530186653137207,-149.8779296875,-84.228515625,399.98779296875,0.9765625,4.7607421875,0.30517578125
1742912627.4345276,-0.0002090325579047203,-0.0009042872115969658,-0.0005033612251281738,-149.91455078125,-84.0087890625,399.98779296875,0.8544921875,4.82177734375,0.244140625
1742912627.4793224,3.452785313129425e-05,0.000791396014392376,-1.4841556549072266e-05,-150.18310546875,-84.27734375,399.98779296875,0.79345703125,5.0048828125,0.30517578125
1742912627.5242393,-0.0008064107969403267,0.0008983677253127098,-0.0008549690246582031,-149.59716796875,-84.228515625,399.98779296875,0.91552734375,4.8828125,0.30517578125
1742912627.5691648,0.00016733910888433456,-7.690209895372391e-05,-0.00048065185546875,-149.4873046875,-84.375,399.98779296875,0.8544921875,4.8828125,0.1220703125
1742912627.6149266,0.0007648365572094917,-7.563084363937378e-05,0.00012755393981933594,-149.98779296875,-83.72802734375,399.98779296875,0.79345703125,4.82177734375,0.42724609375
1742912627.6591573,0.0001519313082098961,0.00040582939982414246,-0.0008350014686584473,-149.79248046875,-84.86328125,399.98779296875,0.79345703125,4.94384765625,0.244140625
1742912627.7493675,-9.068474173545837e-05,0.0007592793554067612,-0.001301407814025879,-149.609375,-83.99658203125,399.98779296875,1.03759765625,4.69970703125,0.30517578125
1742912627.7942324,0.00015091896057128906,2.6413239538669586e-05,0.0005208849906921387,-150.244140625,-84.53369140625,399.98779296875,1.03759765625,4.82177734375,0.30517578125
1742912627.839254,-0.0004518385976552963,-0.0010544965043663979,0.0007523894309997559,-149.560546875,-84.11865234375,399.98779296875,0.91552734375,4.7607421875,0.3662109375
1742912627.8842192,0.00039599835872650146,-0.00043680332601070404,0.0015802979469299316,-149.4873046875,-84.4482421875,399.98779296875,0.8544921875,4.94384765625,0.244140625
1742912627.9292119,-0.0006910208612680435,-0.00042958371341228485,-0.00048673152923583984,-149.59716796875,-84.06982421875,399.98779296875,0.91552734375,4.8828125,0.3662109375
1742912627.9753275,-0.0003194408491253853,-0.00030243024230003357,-0.001078963279724121,-149.54833984375,-84.130859375,399.98779296875,0.8544921875,4.82177734375,0.1220703125
1742912628.0192075,-0.0006743185222148895,0.0010231472551822662,0.0008597373962402344,-149.609375,-84.31396484375,399.98779296875,0.8544921875,4.94384765625,0.244140625
1742912628.0644538,-6.290990859270096e-05,0.00028591975569725037,-0.00011491775512695312,-149.42626953125,-84.5458984375,399.98779296875,0.8544921875,4.82177734375,0.3662109375
1742912628.109321,0.00017823558300733566,0.00016114115715026855,-0.0014336109161376953,-149.67041015625,-83.80126953125,399.98779296875,1.03759765625,4.69970703125,0.244140625
1742912628.19929,-0.0006650788709521294,3.842543810606003e-05,0.0001507401466369629,-149.32861328125,-84.8388671875,399.98779296875,0.9765625,4.69970703125,0.3662109375
1742912628.244234,-0.000173875130712986,-0.0005624732002615929,-0.0008121728897094727,-149.1943359375,-84.06982421875,399.98779296875,0.8544921875,4.7607421875,0.244140625
1742912628.2894814,0.0007894197478890419,-0.0004331236705183983,0.0008819699287414551,-149.267578125,-84.65576171875,399.98779296875,0.79345703125,4.94384765625,0.1220703125
1742912628.3342612,0.0012565823271870613,0.0005344562232494354,0.0003871917724609375,-149.31640625,-83.82568359375,399.98779296875,0.9765625,4.8828125,0.54931640625
1742912628.380303,-0.0008050817996263504,-0.00043479911983013153,-9.942054748535156e-05,-149.853515625,-84.86328125,399.98779296875,0.9765625,4.69970703125,0.18310546875
1742912628.4242182,-0.0009118271991610527,-0.0004276121035218239,0.0001423358917236328,-150.0,-84.04541015625,399.98779296875,0.91552734375,4.7607421875,0.18310546875
1742912628.4692051,-0.00017643999308347702,-0.000420544296503067,-0.0004602670669555664,-149.98779296875,-84.6923828125,399.98779296875,0.9765625,5.0048828125,0.18310546875
1742912628.5142686,-0.0004136292263865471,-5.3435564041137695e-05,0.0008679032325744629,-149.25537109375,-84.130859375,399.98779296875,0.91552734375,4.94384765625,0.244140625
1742912628.6042972,0.0006736814975738525,0.0001875525340437889,1.3172626495361328e-05,-150.3173828125,-84.6923828125,399.98779296875,0.79345703125,4.82177734375,0.30517578125
1742912628.649699,0.00042244140058755875,0.00018445216119289398,1.2934207916259766e-05,-149.91455078125,-83.65478515625,399.98779296875,0.9765625,5.0048828125,0.244140625
1742912628.6941712,0.00017535407096147537,-0.00029880739748477936,-0.0007075667381286621,-150.25634765625,-85.04638671875,399.98779296875,0.9765625,4.8828125,0.1220703125
1742912628.7396924,0.0014930348843336105,-0.00041392073035240173,2.4437904357910156e-05,-149.8291015625,-84.2529296875,399.98779296875,0.91552734375,5.0048828125,0.30517578125
1742912628.7846963,0.0011081984266638756,-0.0007672365754842758,0.00014406442642211914,-149.67041015625,-85.09521484375,399.98779296875,0.91552734375,4.7607421875,0.244140625
1742912628.829201,0.00036956556141376495,0.00020586606115102768,-0.0008187294006347656,-149.951171875,-83.82568359375,399.98779296875,0.79345703125,4.69970703125,0.30517578125
1742912628.8742735,0.0004835100844502449,-0.0005178526043891907,0.0006354451179504395,-149.658203125,-84.82666015625,399.98779296875,0.8544921875,4.94384765625,0.244140625
1742912628.9191394,-0.0010851658880710602,-0.0002691876143217087,-0.00021541118621826172,-149.57275390625,-84.0576171875,399.98779296875,0.9765625,4.82177734375,0.30517578125
1742912628.9642227,0.0003734026104211807,0.0003355247899889946,0.00014829635620117188,-149.755859375,-85.2783203125,399.98779296875,0.8544921875,4.7607421875,0.18310546875
1742912629.0092342,-0.0007132431492209435,-0.00015023164451122284,-0.0008145570755004883,-149.7802734375,-84.06982421875,399.98779296875,0.91552734375,4.7607421875,0.244140625
1742912629.0993073,-0.0007014544680714607,-0.00014774873852729797,-0.0003209114074707031,-150.08544921875,-85.29052734375,399.98779296875,0.79345703125,4.94384765625,0.42724609375
1742912629.1453116,0.00099087692797184,-0.0005054641515016556,-0.0005556941032409668,-150.67138671875,-84.521484375,399.98779296875,0.8544921875,4.8828125,0.18310546875
1742912629.1902735,1.4077872037887573e-05,-0.00013695191591978073,0.0006540417671203613,-151.01318359375,-84.9609375,399.98779296875,0.79345703125,4.8828125,0.244140625
1742912629.2349224,-0.0008265236392617226,-0.0001346878707408905,-0.0004372596740722656,-150.08544921875,-84.033203125,399.98779296875,0.79345703125,5.06591796875,0.244140625
1742912629.2793264,0.00014755874872207642,0.0002276962623000145,0.00041031837463378906,-149.853515625,-84.63134765625,399.98779296875,0.732421875,4.7607421875,0.30517578125
1742912629.3246133,-0.0006952490657567978,0.00010387971997261047,-0.0004368424415588379,-150.048828125,-83.87451171875,399.98779296875,0.91552734375,4.8828125,0.18310546875
1742912629.3690753,-0.00020354706794023514,-1.7889775335788727e-05,-6.943941116333008e-05,-149.89013671875,-84.9609375,399.98779296875,0.8544921875,4.8828125,0.3662109375
1742912629.4142742,0.0006401855498552322,0.0005826689302921295,-0.00018835067749023438,-149.32861328125,-84.41162109375,399.98779296875,0.9765625,4.94384765625,0.244140625
1742912629.5043046,-0.00045087002217769623,-0.0008675931021571159,0.00017493963241577148,-150.81787109375,-85.107421875,399.98779296875,0.91552734375,4.8828125,0.244140625
1742912629.5507739,3.6792829632759094e-05,-1.288391649723053e-05,-6.80685043334961e-05,-149.86572265625,-84.1552734375,399.98779296875,0.8544921875,4.82177734375,0.30517578125
1742912629.5941286,-0.0008041840046644211,0.0005875919014215469,-0.0001869797706604004,-150.2685546875,-84.33837890625,399.98779296875,0.79345703125,4.94384765625,0.3662109375
1742912629.6395533,0.00016952957957983017,-0.00026248861104249954,-0.001384437084197998,-150.35400390625,-84.1064453125,399.98779296875,1.03759765625,4.7607421875,0.30517578125
1742912629.6842337,-0.00031348317861557007,-0.0003782026469707489,0.0005592703819274902,-149.8291015625,-84.26513671875,399.98779296875,0.91552734375,4.7607421875,0.42724609375
1742912629.7292738,-0.0006684595718979836,0.0003483640030026436,-0.0006505250930786133,-148.86474609375,-83.85009765625,399.98779296875,1.03759765625,4.7607421875,0.244140625
1742912629.7744193,-0.0004173051565885544,-0.0006178151816129684,-0.000639796257019043,-149.15771484375,-84.1552734375,399.98779296875,0.91552734375,5.06591796875,0.18310546875
1742912629.819175,-0.0005304599180817604,0.0003528175875544548,-0.0002690553665161133,-149.6826171875,-84.19189453125,399.98779296875,0.9765625,4.82177734375,0.244140625
1742912629.864231,0.00043872930109500885,0.0007071439176797867,-0.0009849071502685547,-150.439453125,-84.7412109375,399.98779296875,0.91552734375,5.0048828125,0.3662109375
1742912629.9092054,-0.00040889065712690353,0.00021524541079998016,-0.00012826919555664062,-149.96337890625,-84.1552734375,399.98779296875,0.91552734375,4.82177734375,0.30517578125
1742912629.9543674,-0.000402132049202919,-0.0005086278542876244,0.00011396408081054688,-151.08642578125,-85.38818359375,399.98779296875,0.8544921875,4.94384765625,0.3662109375
1742912630.0442305,0.00044488348066806793,-0.0002601156011223793,0.0015527009963989258,-150.25634765625,-84.423828125,399.98779296875,0.9765625,4.94384765625,0.3662109375
1742912630.090638,7.737241685390472e-05,-0.00013576354831457138,-0.0005138516426086426,-150.67138671875,-84.70458984375,399.98779296875,1.03759765625,4.94384765625,0.30517578125
1742912630.1354985,0.00019614584743976593,-0.0007337825372815132,-0.0002652406692504883,-150.10986328125,-84.033203125,399.98779296875,0.91552734375,4.82177734375,0.244140625
1742912630.1792698,0.0003129560500383377,0.0002387668937444687,-2.0742416381835938e-05,-150.7080078125,-84.521484375,399.98779296875,0.9765625,4.7607421875,0.3662109375
1742912630.2241793,0.0009080460295081139,0.0005949782207608223,0.00021970272064208984,-150.5126953125,-83.60595703125,399.98779296875,0.8544921875,4.94384765625,0.244140625
1742912630.2691116,0.00017272122204303741,-0.0002552242949604988,-0.0006242990493774414,-150.390625,-84.36279296875,399.98779296875,0.79345703125,4.638671875,0.42724609375
1742912630.314153,-0.00043039675801992416,0.0001091519370675087,0.0008266568183898926,-149.76806640625,-84.09423828125,399.98779296875,0.8544921875,4.69970703125,0.3662109375
1742912630.40435,0.000176980160176754,0.00010734796524047852,-0.00038754940032958984,-150.28076171875,-85.0341796875,399.98779296875,0.8544921875,4.7607421875,0.3662109375
1742912630.4045384,0.0004141600802540779,-0.000254584476351738,9.906291961669922e-05,-149.9755859375,-84.36279296875,399.98779296875,1.03759765625,4.94384765625,0.244140625
1742912630.4943244,0.0007674722000956535,-0.00013032369315624237,0.0016580820083618164,-150.7080078125,-85.48583984375,399.98779296875,1.03759765625,4.82177734375,0.30517578125
1742912630.5392425,-0.0006858445703983307,0.00047209393233060837,0.0005502104759216309,-150.5126953125,-84.87548828125,399.98779296875,0.9765625,4.69970703125,0.18310546875
1742912630.5841613,0.00016586016863584518,0.00022418517619371414,-0.00029927492141723633,-150.7568359375,-85.3515625,399.98779296875,0.8544921875,4.69970703125,0.244140625
1742912630.6293554,-0.00019703898578882217,-0.00013967789709568024,0.001386404037475586,-150.0244140625,-84.7900390625,399.98779296875,1.03759765625,5.0048828125,0.3662109375
1742912630.6750753,-0.000433887355029583,0.0008230516687035561,-0.0005573630332946777,-149.6337890625,-84.85107421875,399.98779296875,0.9765625,5.0048828125,0.30517578125
1742912630.7191548,5.3495168685913086e-05,-0.00015097390860319138,-0.0006682276725769043,-149.91455078125,-83.63037109375,399.98779296875,0.8544921875,4.82177734375,0.3662109375
1742912630.7641442,-0.000307546928524971,-0.00026853103190660477,0.0007834434509277344,-150.18310546875,-84.19189453125,399.98779296875,1.03759765625,4.82177734375,0.3662109375
1742912630.8091505,0.00017774663865566254,-0.00038414541631937027,5.0187110900878906e-05,-150.59814453125,-84.19189453125,399.98779296875,1.03759765625,4.82177734375,0.30517578125
1742912630.9003203,0.0002948613837361336,-0.0002577435225248337,-0.00043088197708129883,-150.2685546875,-84.85107421875,399.98779296875,0.79345703125,5.06591796875,0.244140625
1742912630.944308,0.0001699347048997879,-1.3378448784351349e-05,0.00029653310775756836,-149.9755859375,-84.11865234375,399.98779296875,1.03759765625,4.94384765625,0.30517578125
1742912630.9895482,-0.0007932949811220169,0.0011873692274093628,-0.0004286766052246094,-150.7080078125,-84.75341796875,399.98779296875,0.9765625,4.82177734375,0.30517578125
1742912631.0348237,0.001140659675002098,0.0005674799904227257,0.0002987384796142578,-150.1220703125,-83.58154296875,399.98779296875,0.91552734375,4.82177734375,0.3662109375
1742912631.0793543,-0.00031882524490356445,-0.00040232110768556595,-0.0013869404792785645,-149.71923828125,-84.5947265625,399.98779296875,0.91552734375,4.8828125,0.244140625
1742912631.124288,0.00028670765459537506,0.0002045920118689537,-0.0002835392951965332,-149.9755859375,-84.31396484375,399.98779296875,0.8544921875,4.94384765625,0.3662109375
1742912631.1693082,0.0002819690853357315,0.0002012103796005249,0.00044149160385131836,-149.96337890625,-83.642578125,399.98779296875,0.9765625,4.82177734375,0.3662109375
1742912631.2142446,0.00015725567936897278,-4.22205775976181e-05,0.00019407272338867188,-149.64599609375,-83.80126953125,399.98779296875,0.91552734375,4.69970703125,0.30517578125
1742912631.2592905,0.0008749719709157944,-0.001121995970606804,-0.0007695555686950684,-150.03662109375,-84.2041015625,399.98779296875,0.8544921875,4.94384765625,0.244140625
1742912631.3042915,-0.0002199644222855568,0.0003371806815266609,-0.0003966689109802246,-149.7802734375,-84.11865234375,399.98779296875,1.03759765625,5.06591796875,0.1220703125
1742912631.394305,0.00038393400609493256,-0.00014860276132822037,-0.0007502436637878418,-150.732421875,-84.26513671875,399.98779296875,0.91552734375,4.8828125,0.18310546875
1742912631.4402795,1.742970198392868e-05,-0.00014614686369895935,0.0007027983665466309,-150.28076171875,-84.765625,399.98779296875,1.03759765625,4.8828125,0.3662109375
1742912631.4843078,0.00013719405978918076,0.0002164263278245926,-0.00038927793502807617,-150.32958984375,-84.1552734375,399.98779296875,0.9765625,4.7607421875,0.30517578125
1742912631.5292907,0.0003750314936041832,0.00021284911781549454,-0.000983119010925293,-150.3662109375,-84.4970703125,399.98779296875,1.03759765625,4.7607421875,0.244140625
1742912631.5745544,0.0007289908826351166,-3.077462315559387e-05,0.0014342069625854492,-149.951171875,-84.619140625,399.98779296875,0.9765625,4.8828125,0.42724609375
1742912631.6193104,0.0007169414311647415,-0.00027037132531404495,-0.00015020370483398438,-150.64697265625,-84.46044921875,399.98779296875,0.9765625,4.69970703125,0.244140625
1742912631.6642182,-0.00025532953441143036,-0.0007461132481694221,0.0002124309539794922,-150.15869140625,-84.53369140625,399.98779296875,0.8544921875,4.7607421875,0.30517578125
1742912631.7092683,-0.000611267052590847,-0.0003736233338713646,-0.0006314516067504883,-150.4150390625,-84.11865234375,399.98779296875,0.8544921875,4.82177734375,0.18310546875
1742912631.7545865,-0.0009613214060664177,0.0008330782875418663,0.0012997984886169434,-149.54833984375,-83.89892578125,399.98779296875,0.91552734375,4.7607421875,0.244140625
1742912631.8444219,-0.00046522170305252075,0.0005792034789919853,-0.0004024505615234375,-149.365234375,-84.228515625,399.98779296875,0.9765625,4.8828125,0.3662109375
1742912631.8893259,-0.0008176900446414948,-0.0003907913342118263,0.0005646347999572754,-149.20654296875,-83.97216796875,399.98779296875,1.03759765625,4.7607421875,0.18310546875
1742912631.93432,-0.0009242268279194832,0.00033598393201828003,-0.0006452202796936035,-149.62158203125,-83.837890625,399.98779296875,1.03759765625,4.7607421875,0.48828125
1742912631.9792783,-0.0011490555480122566,-0.0002698330208659172,-0.0020751953125,-150.1220703125,-84.0576171875,399.98779296875,0.9765625,4.8828125,0.244140625
1742912632.0251231,0.0009108316153287888,0.00033489055931568146,0.00036013126373291016,-149.47509765625,-84.2041015625,399.98779296875,1.03759765625,4.82177734375,0.244140625
1742912632.0694811,-0.00018469709903001785,-0.0006310660392045975,0.0008344054222106934,-149.91455078125,-83.21533203125,399.98779296875,1.03759765625,4.82177734375,0.30517578125
1742912632.114566,0.00029856618493795395,0.0005798907950520515,0.0008206367492675781,-150.1953125,-84.08203125,399.98779296875,0.9765625,4.8828125,0.244140625
1742912632.1592445,0.0006537893787026405,-0.0005101673305034637,-0.0011137723922729492,-149.81689453125,-84.09423828125,399.98779296875,0.9765625,4.82177734375,0.30517578125
1742912632.2051215,-0.00019738543778657913,-0.0005017351359128952,-0.001935720443725586,-149.96337890625,-84.3017578125,399.98779296875,0.91552734375,4.69970703125,0.3662109375
1742912632.339312,-7.406994700431824e-05,0.00010682083666324615,0.002298116683959961,-149.91455078125,-84.375,399.98779296875,0.79345703125,4.7607421875,0.30517578125
1742912632.3394995,0.0004073651507496834,-0.00013505015522241592,0.0026202797889709473,-150.35400390625,-84.3994140625,399.98779296875,0.9765625,4.8828125,0.3662109375
1742912632.3842824,-0.0010399995371699333,0.00022733956575393677,-0.00042432546615600586,-150.1953125,-84.04541015625,399.98779296875,1.0986328125,4.7607421875,0.3662109375
1742912632.4291742,-0.0010228091850876808,0.0003436347469687462,-0.001977980136871338,-150.25634765625,-84.3017578125,399.98779296875,1.03759765625,4.82177734375,0.244140625
1742912632.47428,-4.548206925392151e-05,0.0003379546105861664,-0.0013450384140014648,-150.23193359375,-84.28955078125,399.98779296875,0.91552734375,4.69970703125,0.30517578125
1742912632.5193074,0.0006755851209163666,-2.7789734303951263e-05,0.0016785264015197754,-149.89013671875,-84.41162109375,399.98779296875,0.91552734375,4.8828125,0.42724609375
1742912632.564576,0.000304260291159153,9.272247552871704e-05,0.0028513073921203613,-149.8779296875,-83.69140625,399.98779296875,0.9765625,4.94384765625,0.3662109375
1742912632.6092577,0.0007794415578246117,0.0003312947228550911,0.0006432533264160156,-149.93896484375,-84.63134765625,399.98779296875,1.03759765625,5.0048828125,0.244140625
1742912632.6542463,0.0002863481640815735,-0.00015439186245203018,-0.003089010715484619,-149.5361328125,-84.68017578125,399.98779296875,1.03759765625,4.8828125,0.42724609375
1742912632.7443497,-0.00019859522581100464,-0.00027189217507839203,-0.00015670061111450195,-150.146484375,-84.8388671875,399.98779296875,1.03759765625,4.82177734375,0.30517578125
1742912632.7892663,0.0006450554355978966,0.0010531805455684662,0.0034474730491638184,-150.5859375,-84.3017578125,399.98779296875,0.732421875,4.82177734375,0.42724609375
1742912632.8342466,0.0006343936547636986,0.0009157201275229454,0.0024300813674926758,-150.439453125,-84.4482421875,399.98779296875,0.91552734375,4.94384765625,0.244140625
1742912632.880797,-0.0005766181275248528,0.0005404260009527206,-0.0025322437286376953,-149.4140625,-83.9111328125,399.98779296875,0.91552734375,4.82177734375,0.30517578125
1742912632.9252336,0.0005133859813213348,-0.0007890854030847549,-0.003570854663848877,-150.13427734375,-84.72900390625,399.98779296875,0.732421875,4.8828125,0.30517578125
1742912632.9692762,-0.00045552104711532593,0.00018437858670949936,-0.00015038251876831055,-149.31640625,-84.2529296875,399.98779296875,0.8544921875,4.82177734375,0.3662109375
1742912633.0142171,0.0002723243087530136,0.0001813312992453575,0.0021331310272216797,-149.6337890625,-84.63134765625,399.98779296875,0.8544921875,4.82177734375,0.18310546875
1742912633.0592365,-0.00021238718181848526,-0.00042192917317152023,-0.0009034276008605957,-150.15869140625,-84.28955078125,399.98779296875,0.79345703125,4.82177734375,0.18310546875
1742912633.1042814,0.00015128124505281448,0.00042541325092315674,-0.0007684230804443359,-149.98779296875,-84.7900390625,399.98779296875,0.9765625,4.94384765625,0.244140625
1742912633.1943653,-0.0004514828324317932,0.00017827656120061874,-0.00027549266815185547,-149.91455078125,-85.09521484375,399.98779296875,0.91552734375,4.82177734375,0.30517578125
1742912633.2392974,-0.0004440201446413994,-0.00042493361979722977,0.0009295940399169922,-149.9755859375,-84.9609375,399.98779296875,0.9765625,4.7607421875,0.18310546875
1742912633.284179,-0.00019657611846923828,0.00030240602791309357,0.0005540847778320312,-149.8779296875,-84.66796875,399.98779296875,0.8544921875,4.8828125,0.18310546875
1742912633.3309686,-0.0006735371425747871,0.0006575658917427063,-0.0017360448837280273,-150.01220703125,-84.9365234375,399.98779296875,0.9765625,5.0048828125,0.30517578125
1742912633.3741593,0.0006581749767065048,4.643388092517853e-05,-0.0006268620491027832,-150.13427734375,-83.9599609375,399.98779296875,0.91552734375,4.8828125,0.30517578125
1742912633.419157,0.0005272431299090385,0.0008860351517796516,0.0017845630645751953,-150.64697265625,-85.205078125,399.98779296875,0.9765625,4.8828125,0.1220703125
1742912633.464914,0.001478949561715126,0.0006312849000096321,0.00031441450119018555,-150.4638671875,-84.1552734375,399.98779296875,0.91552734375,5.06591796875,0.3662109375
1742912633.5090828,-0.000586390495300293,0.00038074515759944916,0.0007894039154052734,-150.40283203125,-84.97314453125,399.98779296875,0.9765625,4.638671875,0.18310546875
1742912633.5541658,0.0002636704593896866,-0.0013062851503491402,-0.0005442500114440918,-150.50048828125,-84.36279296875,399.98779296875,0.9765625,4.94384765625,0.30517578125
1742912633.6443002,1.9206665456295013e-05,-0.00044432561844587326,0.0003051161766052246,-149.98779296875,-85.41259765625,399.98779296875,0.91552734375,4.8828125,0.3662109375
1742912633.689161,0.00037904735654592514,0.0010036500170826912,-0.00018012523651123047,-150.341796875,-84.5947265625,399.98779296875,0.8544921875,4.82177734375,0.3662109375
1742912633.7341561,0.0007329396903514862,0.0006269030272960663,0.0011434555053710938,-149.8046875,-84.716796875,399.98779296875,0.79345703125,5.0048828125,0.244140625
1742912633.7791727,-0.0007198061794042587,-0.0008240900933742523,0.0006443262100219727,-150.48828125,-84.41162109375,399.98779296875,0.8544921875,4.69970703125,0.30517578125
1742912633.8242228,-0.000707908533513546,0.0001499522477388382,-8.666515350341797e-05,-150.35400390625,-84.9609375,399.98779296875,0.91552734375,5.0048828125,0.30517578125
1742912633.8691752,0.00014416035264730453,-0.0006928946822881699,-0.0002052783966064453,-150.7080078125,-84.47265625,399.98779296875,0.9765625,5.0048828125,0.30517578125
1742912633.9155447,-9.83281061053276e-05,-0.0008014943450689316,-0.0005620718002319336,-150.45166015625,-85.36376953125,399.98779296875,0.8544921875,4.69970703125,0.244140625
1742912633.9591663,2.3350119590759277e-05,5.2121467888355255e-05,-0.0009129643440246582,-150.50048828125,-84.38720703125,399.98779296875,0.732421875,4.8828125,0.30517578125
1742912634.0041895,-0.0008174041286110878,-0.0005490034818649292,-0.0005376935005187988,-150.4638671875,-85.11962890625,399.98779296875,1.03759765625,4.94384765625,0.244140625
1742912634.0952032,0.0009968960657715797,-0.0001797713339328766,0.00019150972366333008,-150.29296875,-84.04541015625,399.98779296875,0.9765625,5.0048828125,0.244140625
1742912634.1401868,0.0006202608346939087,0.0007836213335394859,0.0007886290550231934,-150.48828125,-85.25390625,399.98779296875,0.79345703125,4.69970703125,0.18310546875
1742912634.1842816,0.0008501140400767326,-0.0004298575222492218,-0.0005449652671813965,-150.390625,-84.19189453125,399.98779296875,0.91552734375,5.0048828125,0.30517578125
1742912634.229554,0.000716010108590126,-0.0004227524623274803,-0.0005359649658203125,-151.07421875,-85.11962890625,399.98779296875,0.91552734375,4.82177734375,0.3662109375
1742912634.2744308,0.0004640696570277214,0.00018449872732162476,0.0005533695220947266,-150.29296875,-83.99658203125,399.98779296875,0.91552734375,4.8828125,0.3662109375
1742912634.3191576,-0.00038396939635276794,0.00018144957721233368,0.000904381275177002,-150.5126953125,-84.9365234375,399.98779296875,0.9765625,5.126953125,0.244140625
1742912634.3641741,0.0007028505206108093,5.8397650718688965e-05,0.0005292892456054688,-150.03662109375,-83.82568359375,399.98779296875,0.79345703125,5.06591796875,0.3662109375
1742912634.4091778,-0.0006293458864092827,0.0001774849370121956,-0.0009201169013977051,-150.1953125,-85.02197265625,399.98779296875,0.91552734375,4.8828125,0.30517578125
1742912634.4541373,-0.0002587856724858284,-6.55539333820343e-05,-0.0012650489807128906,-149.74365234375,-84.423828125,399.98779296875,0.91552734375,4.7607421875,0.30517578125
1742912634.4999816,-0.00013445597141981125,0.0005357926711440086,7.641315460205078e-05,-150.20751953125,-84.55810546875,399.98779296875,0.8544921875,4.82177734375,0.244140625
1742912634.5892606,-0.00013223383575677872,0.00052693672478199,0.0010355710983276367,-150.50048828125,-83.935546875,399.98779296875,0.732421875,4.8828125,0.244140625
1742912634.6343129,0.00047021452337503433,3.801658749580383e-05,-6.198883056640625e-05,-150.47607421875,-84.5947265625,399.98779296875,0.8544921875,5.06591796875,0.18310546875
1742912634.6802685,-0.0008581364527344704,-0.00020271725952625275,-0.00042110681533813477,-149.853515625,-84.2529296875,399.98779296875,0.91552734375,5.0048828125,0.30517578125
1742912634.7246418,0.00023652147501707077,-0.0004394715651869774,-0.001014411449432373,-150.62255859375,-85.16845703125,399.98779296875,0.79345703125,4.8828125,0.42724609375
1742912634.7701583,-0.0013280725106596947,-7.204990833997726e-05,0.0006830692291259766,-150.35400390625,-84.326171875,399.98779296875,0.9765625,4.82177734375,0.30517578125
1742912634.8143725,0.0003746161237359047,-0.0006711222231388092,0.0006718039512634277,-150.5615234375,-84.9365234375,399.98779296875,0.91552734375,4.82177734375,0.3662109375
1742912634.8592546,0.0003684237599372864,-0.0007800823077559471,0.0001804828643798828,-149.64599609375,-84.375,399.98779296875,0.8544921875,4.8828125,0.3662109375
1742912634.9041636,0.00012222863733768463,-0.0001669256016612053,-0.00018262863159179688,-149.8779296875,-85.3271484375,399.98779296875,0.9765625,4.8828125,0.244140625
1742912634.9493382,-0.0003600018098950386,-4.411395639181137e-05,0.0001805424690246582,-150.1953125,-84.31396484375,399.98779296875,0.8544921875,4.8828125,0.30517578125
1742912634.9942322,-0.0009543141350150108,0.00103708915412426,0.0005376935005187988,-150.146484375,-84.60693359375,399.98779296875,0.91552734375,4.69970703125,0.42724609375
1742912635.0850852,-0.0004583299160003662,5.9526413679122925e-05,0.0006488561630249023,-150.08544921875,-84.36279296875,399.98779296875,1.03759765625,5.0048828125,0.244140625
1742912635.1307468,-0.0010510170832276344,0.00017859507352113724,-0.0011626482009887695,-149.9755859375,-84.55810546875,399.98779296875,0.91552734375,4.94384765625,0.244140625
1742912635.174366,-0.00043338164687156677,0.00029569584876298904,-0.00018298625946044922,-149.76806640625,-84.2041015625,399.98779296875,0.91552734375,4.82177734375,0.244140625
1742912635.2202353,0.0008943602442741394,-0.0004295073449611664,-0.000299990177154541,-150.25634765625,-84.53369140625,399.98779296875,1.03759765625,4.82177734375,0.30517578125
1742912635.2651694,-0.00032094866037368774,-0.0007825661450624466,-0.0019757747650146484,-149.67041015625,-84.31396484375,399.98779296875,0.8544921875,4.8828125,0.30517578125
1742912635.309125,-0.000315643846988678,0.0006710002198815346,9.775161743164062e-05,-149.91455078125,-84.80224609375,399.98779296875,0.91552734375,4.82177734375,0.18310546875
1742912635.3542178,0.0008900994434952736,-0.0003005117177963257,0.001176595687866211,-150.32958984375,-84.36279296875,399.98779296875,1.03759765625,4.8828125,0.42724609375
1742912635.444306,-0.0003251396119594574,-0.001135912723839283,-4.3392181396484375e-05,-150.10986328125,-85.0341796875,399.98779296875,0.91552734375,4.94384765625,0.244140625
1742912635.4891534,0.0006406558677554131,-0.0005168737843632698,0.00019741058349609375,-150.37841796875,-84.77783203125,399.98779296875,1.0986328125,4.94384765625,0.244140625
1742912635.5341814,0.0005100136622786522,0.0005721431225538254,0.00019413232803344727,-150.0,-84.99755859375,399.98779296875,0.91552734375,4.69970703125,0.30517578125
1742912635.5813565,-9.867921471595764e-05,-0.00015762913972139359,-0.0002892613410949707,-149.51171875,-84.92431640625,399.98779296875,0.8544921875,4.8828125,0.3662109375
1742912635.6241689,-0.0002171006053686142,-0.0006352346390485764,-0.0011248588562011719,-149.8779296875,-84.82666015625,399.98779296875,0.9765625,4.8828125,0.18310546875
1742912635.669266,-0.0004536174237728119,-0.0003846297040581703,-0.00110626220703125,-150.5615234375,-83.935546875,399.98779296875,0.8544921875,4.82177734375,0.244140625
1742912635.7156863,-0.0003260672092437744,-0.0002582194283604622,0.0016732215881347656,-150.52490234375,-85.302734375,399.98779296875,0.8544921875,4.8828125,0.18310546875
1742912635.7592387,3.9480626583099365e-05,-0.0003740042448043823,0.0011653304100036621,-150.62255859375,-84.6923828125,399.98779296875,0.9765625,4.8828125,0.3662109375
1742912635.8043215,0.0008791964501142502,-0.00012771692126989365,-0.0013750195503234863,-150.3173828125,-85.07080078125,399.98779296875,0.91552734375,4.8828125,0.244140625
1742912635.8497543,-0.0003358619287610054,0.00023455172777175903,-0.0018324851989746094,-150.20751953125,-84.7412109375,399.98779296875,0.91552734375,4.8828125,0.244140625
1742912635.8941138,-0.0006904685869812965,0.00047077983617782593,-0.000601649284362793,-150.390625,-85.2294921875,399.98779296875,1.03759765625,4.82177734375,0.3662109375
1742912635.9843123,0.0006415229290723801,0.0010632611811161041,0.00012862682342529297,-150.76904296875,-84.92431640625,399.98779296875,0.91552734375,4.82177734375,0.244140625
1742912636.029165,3.0656345188617706e-05,0.0005654757842421532,-0.0013141036033630371,-150.537109375,-85.44921875,399.98779296875,0.9765625,4.8828125,0.1220703125
1742912636.0741894,0.0012306757271289825,-0.0011246073991060257,-0.0011723041534423828,-150.390625,-83.99658203125,399.98779296875,0.91552734375,4.82177734375,0.18310546875
1742912636.1196039,0.0008501764386892319,-2.554524689912796e-05,0.00016766786575317383,-150.1953125,-85.4248046875,399.98779296875,0.8544921875,4.8828125,0.3662109375
1742912636.1645257,0.001196281984448433,0.00021498184651136398,0.0010052919387817383,-150.06103515625,-84.60693359375,399.98779296875,0.8544921875,4.7607421875,0.18310546875
1742912636.2091727,-0.000744333490729332,-0.0003888346254825592,0.0006285309791564941,-149.96337890625,-84.912109375,399.98779296875,0.8544921875,5.06591796875,0.244140625
1742912636.25421,0.00010833796113729477,0.0004579611122608185,-0.0007024407386779785,-150.35400390625,-85.04638671875,399.98779296875,0.732421875,4.7607421875,0.3662109375
1742912636.2992375,-0.00013355817645788193,-0.00014987122267484665,-0.0022515058517456055,-150.1708984375,-85.21728515625,399.98779296875,0.79345703125,4.82177734375,0.42724609375
1742912636.3891878,0.00010875426232814789,-2.7341768145561218e-05,0.002707839012145996,-149.76806640625,-84.82666015625,399.98779296875,1.0986328125,4.94384765625,0.244140625
1742912636.434188,-1.3096258044242859e-05,-0.00014694221317768097,0.003623485565185547,-150.54931640625,-85.1806640625,399.98779296875,0.8544921875,4.82177734375,0.244140625
1742912636.479447,-0.0002529853954911232,0.0006958553567528725,-0.003279387950897217,-150.08544921875,-84.36279296875,399.98779296875,0.91552734375,4.94384765625,0.1220703125
1742912636.5251694,0.00011135358363389969,-0.0007562777027487755,-0.0003439188003540039,-150.42724609375,-85.31494140625,399.98779296875,0.91552734375,4.82177734375,0.30517578125
1742912636.5691986,0.00022956542670726776,0.000216643325984478,-0.0029793977737426758,-149.9267578125,-84.9609375,399.98779296875,1.0986328125,4.7607421875,0.3662109375
1742912636.614552,-0.00025443919003009796,-0.000747358426451683,-0.00028902292251586914,-149.2431640625,-84.716796875,399.98779296875,0.91552734375,4.8828125,0.30517578125
1742912636.6592407,-0.0009705489501357079,-0.0002547949552536011,0.002356886863708496,-149.67041015625,-84.92431640625,399.98779296875,0.9765625,4.94384765625,0.30517578125
1742912636.7042568,5.9138983488082886e-06,-0.000490688718855381,-0.0004432797431945801,-150.4150390625,-84.9853515625,399.98779296875,0.91552734375,4.69970703125,0.42724609375
1742912636.7492402,-0.0010746577754616737,0.00011768471449613571,0.00016433000564575195,-149.90234375,-84.82666015625,399.98779296875,0.79345703125,4.8828125,0.48828125
1742912636.8392947,-0.00021652691066265106,-0.0002444181591272354,4.1544437408447266e-05,-150.927734375,-85.009765625,399.98779296875,0.91552734375,4.94384765625,0.3662109375
1742912636.8842912,0.00038731470704078674,-2.728775143623352e-07,0.001481473445892334,-150.42724609375,-84.77783203125,399.98779296875,0.8544921875,4.82177734375,0.3662109375
1742912636.9292235,-0.0002193506807088852,0.00035988911986351013,0.00013643503189086914,-150.2685546875,-84.765625,399.98779296875,0.732421875,4.82177734375,0.1220703125
1742912636.9744656,-0.0006959354504942894,0.00047399289906024933,-0.00022596120834350586,-149.89013671875,-84.85107421875,399.98779296875,0.9765625,4.7607421875,0.30517578125
1742912637.020077,-8.416920900344849e-05,0.0014265794306993484,-0.0005823969841003418,-150.30517578125,-84.8876953125,399.98779296875,1.03759765625,4.94384765625,0.18310546875
1742912637.0644162,3.72743234038353e-05,0.0002024732530117035,-0.0006928443908691406,-149.7314453125,-84.60693359375,399.98779296875,0.79345703125,4.8828125,0.244140625
1742912637.1094122,0.0002767639234662056,-0.0012415051460266113,0.0008792877197265625,-150.10986328125,-84.31396484375,399.98779296875,1.03759765625,4.94384765625,0.18310546875
1742912637.1542265,-0.0002080211415886879,0.0016602789983153343,0.000984787940979004,-149.89013671875,-84.99755859375,399.98779296875,0.8544921875,5.0048828125,0.18310546875
1742912637.244179,0.0006357859820127487,-0.0008882684633135796,0.002048969268798828,-149.0234375,-84.80224609375,399.98779296875,0.8544921875,4.94384765625,0.3662109375
1742912637.2443027,0.0008653821423649788,-3.321841359138489e-05,-0.0019466280937194824,-149.62158203125,-84.87548828125,399.98779296875,0.91552734375,5.126953125,0.244140625
1742912637.3340986,0.00025081541389226913,8.73832032084465e-05,-0.0015543103218078613,-150.1708984375,-84.130859375,399.98779296875,0.9765625,4.94384765625,0.244140625
1742912637.379234,0.000606827437877655,0.0014065178111195564,-0.0005682110786437988,-150.0244140625,-84.9853515625,399.98779296875,1.0986328125,5.06591796875,0.42724609375
1742912637.424416,-0.0006037289276719093,6.269104778766632e-05,0.0022023916244506836,-149.96337890625,-84.33837890625,399.98779296875,0.79345703125,4.8828125,0.18310546875
1742912637.4695818,0.00036667101085186005,-0.0013789767399430275,5.066394805908203e-06,-150.0244140625,-84.619140625,399.98779296875,0.8544921875,4.8828125,0.18310546875
1742912637.514233,-0.0013201264664530754,0.0008047632873058319,-0.0007153153419494629,-150.0,-84.27734375,399.98779296875,0.8544921875,4.94384765625,0.1220703125
1742912637.5592175,0.0002623777836561203,0.000791461206972599,0.0006170868873596191,-149.79248046875,-84.58251953125,399.98779296875,1.03759765625,4.82177734375,0.244140625
1742912637.6041708,-0.0008224323391914368,5.806330591440201e-05,-0.00023347139358520508,-150.0,-84.65576171875,399.98779296875,1.03759765625,4.94384765625,0.30517578125
1742912637.6943521,-0.0002085752785205841,0.0002972092479467392,-0.002270519733428955,-150.537109375,-85.0830078125,399.98779296875,1.03759765625,4.82177734375,0.30517578125
1742912637.694571,-0.0002051275223493576,0.0006524547934532166,0.0013685822486877441,-150.23193359375,-84.85107421875,399.98779296875,0.9765625,5.18798828125,0.30517578125
1742912637.7853043,3.8368627429008484e-05,-0.0005588559433817863,2.5391578674316406e-05,-149.4384765625,-84.8876953125,399.98779296875,0.8544921875,4.69970703125,0.42724609375
1742912637.830215,0.0007580500096082687,-0.00018946081399917603,2.4974346160888672e-05,-149.90234375,-84.31396484375,399.98779296875,1.0986328125,4.82177734375,0.30517578125
1742912637.8745923,2.5204382836818695e-05,0.00017382856458425522,-0.0006957650184631348,-150.634765625,-84.130859375,399.98779296875,1.03759765625,4.82177734375,0.3662109375
1742912637.919463,-0.0005754753947257996,0.0006511658430099487,-0.0003241300582885742,-149.96337890625,-84.716796875,399.98779296875,0.8544921875,4.7607421875,0.3662109375
1742912637.9642837,-0.0004459107294678688,0.00028024520725011826,-0.0005588531494140625,-150.69580078125,-85.302734375,399.98779296875,0.9765625,4.94384765625,0.244140625
1742912638.009217,-0.0004385402426123619,3.5507604479789734e-05,-0.0001894831657409668,-150.35400390625,-83.80126953125,399.98779296875,0.8544921875,4.8828125,0.30517578125
1742912638.0540936,-0.0006713969632983208,3.492087125778198e-05,-0.0005465149879455566,-150.634765625,-84.97314453125,399.98779296875,0.9765625,4.8828125,0.30517578125
1742912638.1441915,6.0016289353370667e-05,0.0003945017233490944,0.00018280744552612305,-150.68359375,-84.24072265625,399.98779296875,0.732421875,4.8828125,0.244140625
1742912638.189203,-0.00018108077347278595,0.0007481388747692108,5.9723854064941406e-05,-150.03662109375,-85.205078125,399.98779296875,0.91552734375,4.7607421875,0.3662109375
1742912638.2341695,-0.0001780875027179718,1.5457160770893097e-05,0.0010191798210144043,-150.06103515625,-84.28955078125,399.98779296875,0.79345703125,4.8828125,0.244140625
1742912638.2791398,-0.00029519665986299515,-0.0008251667022705078,-0.0009185075759887695,-150.06103515625,-84.33837890625,399.98779296875,0.9765625,4.8828125,0.244140625
1742912638.3245852,-0.00017026439309120178,-0.0002112649381160736,-0.0011434555053710938,-150.37841796875,-84.04541015625,399.98779296875,0.91552734375,4.82177734375,0.18310546875
1742912638.3694906,-0.0012479238212108612,0.0005125431343913078,-0.0010045170783996582,-149.951171875,-84.3994140625,399.98779296875,0.91552734375,4.8828125,0.244140625
1742912638.4142003,0.0002133343368768692,0.0002639656886458397,0.00021260976791381836,-150.1220703125,-84.26513671875,399.98779296875,0.79345703125,4.8828125,0.30517578125
1742912638.4603999,-0.00027040205895900726,0.0008598659187555313,0.0005692839622497559,-150.32958984375,-84.77783203125,399.98779296875,0.9765625,5.0048828125,0.30517578125
1742912638.5042276,-0.00038598477840423584,-0.00011476781219244003,0.00019973516464233398,-149.71923828125,-84.5458984375,399.98779296875,0.79345703125,4.82177734375,0.30517578125
1742912638.5943377,0.00046076346188783646,7.181428372859955e-06,0.0007966756820678711,-149.49951171875,-84.6923828125,399.98779296875,1.15966796875,5.06591796875,0.3662109375
1742912638.5945616,0.0003330949693918228,0.0002471683546900749,-0.0004169940948486328,-149.69482421875,-84.43603515625,399.98779296875,0.9765625,4.82177734375,0.3662109375
1742912638.684243,-0.0006328318268060684,0.0007232930511236191,-0.0011304020881652832,-150.09765625,-84.7412109375,399.98779296875,0.9765625,4.8828125,0.3662109375
1742912638.729621,-0.001942950300872326,0.060617595911026,0.006691694259643555,-149.08447265625,-90.34423828125,399.98779296875,1.0986328125,5.55419921875,-0.79345703125
1742912638.7746418,0.019218426197767258,-0.006533341016620398,0.003819882869720459,-150.57373046875,-78.84521484375,399.98779296875,2.44140625,4.69970703125,-10.80322265625
1742912638.8202586,-0.0005477583035826683,-0.001383141614496708,-0.004646956920623779,-141.36962890625,-75.5126953125,399.98779296875,0.91552734375,5.2490234375,0.244140625
1742912638.8641074,-0.0012590205296874046,-3.9700884371995926e-05,0.0016725659370422363,-150.5859375,-95.34912109375,399.98779296875,1.15966796875,4.94384765625,0.48828125
1742912638.9100661,-0.001718420535326004,-0.015645885840058327,0.009928524494171143,-180.31005859375,-68.603515625,399.98779296875,1.03759765625,4.94384765625,-4.5166015625
1742912638.9540792,-0.0001293327659368515,0.0020203539170324802,0.013245940208435059,-166.9677734375,-52.84423828125,399.98779296875,-27.83203125,6.65283203125,0.732421875
1742912639.0001493,0.05629753693938255,0.13356463611125946,0.028153657913208008,-97.412109375,7.23876953125,399.98779296875,-135.1318359375,17.7001953125,32.8369140625
1742912639.0441723,0.06269021332263947,0.32932373881340027,-0.07087486982345581,1.57470703125,19.73876953125,399.98779296875,-144.1650390625,23.5595703125,8.544921875
1742912639.134351,0.0005472255870699883,0.4302470088005066,-0.050615012645721436,80.48095703125,-143.310546875,399.98779296875,-161.07177734375,20.3857421875,-33.8134765625
1742912639.179499,-0.03895913064479828,0.422535240650177,-0.1893996000289917,57.06787109375,-46.91162109375,226.66015625,-110.65673828125,53.955078125,-65.185546875
1742912639.2241747,0.07813586294651031,0.39370161294937134,-0.20619773864746094,39.2333984375,9.19189453125,99.4384765625,10.7421875,-10.009765625,-3.35693359375
1742912639.269129,0.06495915353298187,0.5444630980491638,-0.09354162216186523,34.86328125,16.1865234375,62.26806640625,-17.63916015625,32.65380859375,13.61083984375
1742912639.3141637,0.09617960453033447,0.43041765689849854,-0.24902433156967163,31.09130859375,15.31982421875,46.74072265625,-50.4150390625,30.3955078125,15.625
1742912639.3591673,0.050410497933626175,0.47552621364593506,-0.33494770526885986,25.2685546875,12.07275390625,36.71875,-21.05712890625,21.1181640625,14.22119140625
1742912639.4044976,0.04141369089484215,0.5071635842323303,-0.1453707218170166,21.17919921875,13.18359375,34.3017578125,-19.59228515625,10.55908203125,8.60595703125
1742912639.4492755,0.024762168526649475,0.5033427476882935,-0.09746795892715454,16.80908203125,11.8408203125,31.1767578125,0.0,2.0751953125,-2.50244140625
1742912639.5393288,0.021351560950279236,0.6334437131881714,-0.16356658935546875,15.185546875,13.87939453125,31.67724609375,-27.77099609375,-1.220703125,2.13623046875
1742912639.629346,0.027841642498970032,0.6659524440765381,-0.3565487861633301,14.51416015625,8.6181640625,33.14208984375,-84.65576171875,-6.77490234375,3.11279296875
1742912639.629564,0.10901723802089691,0.6827971935272217,-0.3116382956504822,13.41552734375,8.99658203125,34.5458984375,-60.97412109375,-20.32470703125,-3.7841796875
1742912639.6741064,0.06555704027414322,0.6615469455718994,-0.2994041442871094,12.744140625,5.224609375,35.77880859375,-36.1328125,-12.63427734375,-6.04248046875
1742912639.7191756,0.2183809131383896,0.519514799118042,-0.3364737629890442,14.09912109375,10.9375,34.5703125,11.41357421875,-16.29638671875,59.4482421875
1742912639.7650316,0.019925910979509354,0.6553511023521423,-0.18420791625976562,13.4521484375,10.009765625,33.87451171875,12.3291015625,24.71923828125,-13.61083984375
1742912639.8093736,-0.00933612510561943,0.5637234449386597,-0.15030962228775024,14.794921875,11.51123046875,34.375,40.52734375,-1.52587890625,-5.92041015625
1742912639.8551,0.06693155318498611,0.5877803564071655,-0.16763383150100708,14.83154296875,9.85107421875,33.544921875,-5.31005859375,18.37158203125,-5.2490234375
1742912639.899081,0.06282393634319305,0.5844277739524841,-0.2601848244667053,14.111328125,11.23046875,34.08203125,7.14111328125,5.7373046875,2.8076171875
1742912640.034382,0.06478683650493622,0.5680448412895203,-0.2681296467781067,13.73291015625,9.8876953125,35.29052734375,7.99560546875,4.638671875,-0.732421875
1742912640.0345929,0.06707745790481567,0.5951516628265381,-0.2513323426246643,13.02490234375,11.38916015625,35.2783203125,3.662109375,5.126953125,0.244140625
1742912640.0800445,0.06260726600885391,0.5677868127822876,-0.25426119565963745,13.19580078125,10.0341796875,33.92333984375,4.0283203125,5.31005859375,0.30517578125
1742912640.124155,0.0627729594707489,0.5585219860076904,-0.2649450898170471,12.9150390625,11.12060546875,33.99658203125,3.7841796875,5.2490234375,-0.06103515625
1742912640.1691663,0.06077497452497482,0.5447282195091248,-0.2758125066757202,12.7197265625,9.77783203125,33.80126953125,-0.3662109375,5.37109375,0.244140625
1742912640.2148001,0.06025063991546631,0.5263603329658508,-0.26284992694854736,12.8662109375,11.21826171875,33.92333984375,-1.64794921875,4.8828125,0.48828125
1742912640.261958,0.05913471058011055,0.5204213857650757,-0.25262272357940674,12.98828125,9.7412109375,33.69140625,-0.8544921875,3.72314453125,-0.18310546875
1742912640.3051481,0.06415990740060806,0.5432732105255127,-0.20918995141983032,12.82958984375,11.38916015625,33.3251953125,6.591796875,4.2724609375,-0.3662109375
1742912640.3500981,0.021201051771640778,0.5066813826560974,-0.22662144899368286,12.6953125,9.4970703125,34.11865234375,-19.47021484375,-0.6103515625,-1.0986328125
1742912640.394145,0.05218435823917389,0.5038288831710815,-0.267775297164917,12.90283203125,10.26611328125,33.38623046875,-13.18359375,6.9580078125,3.60107421875
1742912640.4843566,0.053962964564561844,0.48997873067855835,-0.23369628190994263,12.97607421875,10.04638671875,34.0087890625,-2.62451171875,5.4931640625,1.52587890625
1742912640.5297592,0.05379132926464081,0.49280470609664917,-0.23415541648864746,12.255859375,10.986328125,34.53369140625,0.1220703125,4.57763671875,0.30517578125
1742912640.5741644,0.0543428510427475,0.48321855068206787,-0.2308853268623352,12.73193359375,9.5947265625,33.935546875,1.15966796875,5.0048828125,0.732421875
1742912640.6191247,-0.12591399252414703,0.08013829588890076,0.20692116022109985,12.70751953125,10.36376953125,33.31298828125,-6.9580078125,-3.0517578125,-2.5634765625
1742912640.664135,0.22612062096595764,0.7427047491073608,-0.3632674813270569,11.12060546875,6.494140625,37.2314453125,-131.04248046875,125.244140625,167.1142578125
1742912640.7093701,-0.08267062157392502,1.064535140991211,-0.301438570022583,11.767578125,3.759765625,38.134765625,-35.888671875,8.36181640625,-25.93994140625
1742912640.75454,0.07020224630832672,1.0946004390716553,-0.2450736165046692,11.53564453125,1.47705078125,41.44287109375,-76.35498046875,17.88330078125,-42.96875
1742912640.7991438,0.061358511447906494,0.8490080833435059,-0.589295506477356,14.013671875,1.84326171875,43.6767578125,-125.732421875,-17.333984375,-125.30517578125
1742912640.8442788,-0.004123939201235771,0.7372521162033081,-0.5203691720962524,15.63720703125,-1.42822265625,48.74267578125,-196.77734375,-41.19873046875,-53.8330078125
1742912640.8891883,-0.05147656053304672,0.7811307311058044,-0.967607855796814,16.1376953125,-3.6376953125,54.84619140625,-213.68408203125,-17.39501953125,-8.85009765625
1742912640.9792814,-0.21845927834510803,0.7474503517150879,-1.016562819480896,15.3564453125,-5.859375,64.6240234375,-198.974609375,-30.45654296875,24.90234375
1742912641.0241482,0.0017265453934669495,0.6128822565078735,-1.3584773540496826,16.8212890625,-4.3212890625,68.4326171875,-59.6923828125,-21.1181640625,-68.603515625
1742912641.0693166,0.16472947597503662,0.08880671858787537,-1.1075631380081177,19.83642578125,-3.60107421875,69.25048828125,-17.76123046875,-53.40576171875,-93.3837890625
1742912641.1146004,0.16981008648872375,0.3838688135147095,-1.2396821975708008,22.021484375,-2.67333984375,70.17822265625,-93.32275390625,-19.6533203125,-50.6591796875
1742912641.1595285,0.2724095284938812,0.47956860065460205,-1.6492202281951904,24.18212890625,-1.55029296875,72.5830078125,-73.2421875,-68.54248046875,-72.3876953125
1742912641.2044249,0.3112458884716034,0.03332972526550293,-1.193252444267273,27.67333984375,0.87890625,72.66845703125,-59.26513671875,-77.1484375,-79.16259765625
1742912641.2492025,0.32050764560699463,-0.2932841181755066,-0.9870875477790833,30.74951171875,2.0751953125,71.88720703125,42.41943359375,-42.96875,-59.9365234375
1742912641.2941582,0.3685133755207062,-0.0938311517238617,-0.6648780107498169,31.60400390625,3.18603515625,69.59228515625,20.8740234375,-33.203125,-23.01025390625
1742912641.339204,0.47599202394485474,0.09944382309913635,0.24950766563415527,33.06884765625,5.6396484375,73.86474609375,-85.5712890625,57.92236328125,-107.0556640625
1742912641.4291642,0.4537180960178375,-0.46164509654045105,-0.4758926033973694,34.94873046875,9.41162109375,75.20751953125,8.60595703125,143.310546875,-155.76171875
1742912641.4741678,0.2948322594165802,-0.5705857276916504,-1.2239980697631836,32.33642578125,10.9130859375,80.2490234375,-71.8994140625,128.72314453125,70.80078125
1742912641.520184,0.067501500248909,-0.43317845463752747,-0.5594442486763,28.22265625,10.85205078125,84.80224609375,-215.576171875,154.72412109375,72.998046875
1742912641.5647416,0.07803087681531906,-0.27283135056495667,-1.780016303062439,22.27783203125,11.87744140625,90.19775390625,-109.619140625,205.74951171875,53.28369140625
1742912641.6091516,0.12212100625038147,-0.03541964292526245,-1.6826448440551758,17.63916015625,15.24658203125,92.41943359375,-180.48095703125,48.7060546875,57.861328125
1742912641.654117,-0.0225200355052948,-0.2347218096256256,-2.0899033546447754,13.34228515625,17.34619140625,95.78857421875,-48.2177734375,109.92431640625,91.12548828125
1742912641.6991894,-0.14003947377204895,-0.6631516218185425,-1.5195646286010742,10.4736328125,17.78564453125,94.970703125,27.4658203125,94.66552734375,36.376953125
1742912641.7441957,-0.30303725600242615,0.3029482364654541,-1.2950403690338135,6.34765625,14.84375,94.05517578125,63.3544921875,98.57177734375,77.69775390625
1742912641.8343651,-0.4974357783794403,-0.42765721678733826,-2.1302103996276855,1.4404296875,10.44921875,91.552734375,43.51806640625,66.46728515625,42.8466796875
1742912641.8793015,-0.8763834238052368,0.16238704323768616,-1.958740472793579,-3.01513671875,11.38916015625,92.90771484375,47.9736328125,95.03173828125,66.89453125
1742912641.924146,-0.7168741822242737,0.3229745328426361,-2.2158114910125732,-5.16357421875,6.26220703125,88.19580078125,320.4345703125,34.912109375,1.77001953125
1742912641.9695323,-1.0392515659332275,0.6644681692123413,-1.1227235794067383,-2.03857421875,0.8056640625,83.80126953125,151.123046875,-77.1484375,-53.955078125
1742912642.0142024,-1.0169116258621216,0.9957551956176758,-1.1718758344650269,1.171875,-2.9296875,79.1259765625,171.44775390625,-6.7138671875,-77.880859375
1742912642.0591824,-1.0265147686004639,0.5825225710868835,-0.5716913938522339,5.48095703125,-5.09033203125,75.32958984375,54.5654296875,-9.8876953125,-157.89794921875
1742912642.1043193,-0.8752086758613586,0.43975573778152466,-0.4361867308616638,10.4736328125,-4.833984375,72.44873046875,53.16162109375,64.63623046875,-124.93896484375
1742912642.1491249,-0.6047902703285217,0.2794199585914612,-0.6933329105377197,14.29443359375,-5.01708984375,70.20263671875,59.26513671875,99.18212890625,-179.99267578125
1742912642.1943917,-0.050355084240436554,0.3163396716117859,-0.19385895133018494,21.6796875,-1.84326171875,69.68994140625,-48.583984375,-199.52392578125,-242.7978515625
1742912642.2853172,0.3380070924758911,-0.5631122589111328,-0.6857516765594482,30.1513671875,4.23583984375,72.20458984375,-86.24267578125,59.26513671875,-244.81201171875
1742912642.3291793,0.7916215062141418,-0.8545364737510681,-1.2740797996520996,32.48291015625,13.427734375,80.13916015625,-184.14306640625,290.0390625,-247.25341796875
1742912642.3742363,0.8822623491287231,-1.1640738248825073,-1.4192936420440674,30.57861328125,20.37353515625,85.19287109375,-78.91845703125,138.427734375,-2.197265625
1742912642.4203398,0.8541135787963867,-0.8521445989608765,-1.4797509908676147,29.2236328125,22.3876953125,85.888671875,-88.0126953125,-34.7900390625,-80.74951171875
1742912642.4643197,0.7088985443115234,-0.8887218236923218,-1.1402742862701416,30.55419921875,24.365234375,85.8154296875,0.8544921875,2.3193359375,37.59765625
1742912642.5093753,0.6970611810684204,-0.342439204454422,-1.5029540061950684,29.1259765625,20.4345703125,86.328125,27.099609375,6.53076171875,104.06494140625
1742912642.5544019,0.4228643476963043,-0.3682328462600708,-1.2540936470031738,29.62646484375,18.17626953125,83.740234375,43.88427734375,-88.56201171875,48.88916015625
1742912642.5992618,0.5574169158935547,0.04471197724342346,-0.1323622167110443,31.0791015625,14.61181640625,79.67529296875,21.30126953125,-176.26953125,125.1220703125
1742912642.645311,0.38421154022216797,-0.1350255310535431,-0.8803832530975342,31.494140625,11.0107421875,77.72216796875,50.9033203125,-72.81494140625,109.31396484375
